Subject,Session,Version,Condition,Set,Run,Trial,Onset,Task,Sentence,Sentence_Type,Probe_or_Question,Response,RT,Response_Rate,Accuracy_Strict,Accuracy_Lax
864,FED20220203a_3T2,6,S,1,1,1,16.7613468449999,ButtonPress,"Yes, I was held up a bit trying to make a left turn.",TwoSentences,,1.0,0.616434583000228,1.0,True,True
864,FED20220203a_3T2,6,S,1,1,2,25.7286907669986,ButtonPress,"Yes, this conformity represents a desperate attempt to stabilize a hopelessly unstable environment.",TwoSentences,,1.0,0.435773928998969,1.0,True,True
864,FED20220203a_3T2,6,S,1,1,3,34.7304797109973,ButtonPress,"Yes, the reporter nodded as he moved up beside him at the bar.",TwoSentences,,1.0,0.467579139000009,1.0,True,True
864,FED20220203a_3T2,6,N,1,1,4,41.114321735,MemoryAll,Nonword_sequence,OneSentence,2.0,2.0,1.32737867399919,1.0,True,True
864,FED20220203a_3T2,6,N,1,1,5,50.1827116169989,MemoryAll,Nonword_sequence,OneSentence,1.0,1.0,0.884338976000436,1.0,True,True
864,FED20220203a_3T2,6,N,1,1,6,59.1177169109978,MemoryAll,Nonword_sequence,OneSentence,1.0,2.0,1.20913224200194,1.0,False,False
864,FED20220203a_3T2,6,N,1,1,7,68.1695415309987,MemoryAll,Nonword_sequence,OneSentence,1.0,2.0,1.37822452399996,1.0,False,False
864,FED20220203a_3T2,6,N,1,1,8,77.1196458869999,MemoryAll,Nonword_sequence,OneSentence,2.0,2.0,0.87885798500065,1.0,True,True
864,FED20220203a_3T2,6,N,1,1,9,86.105828533,MemoryAll,Nonword_sequence,OneSentence,2.0,2.0,0.778021497000736,1.0,True,True
864,FED20220203a_3T2,6,S,1,1,10,97.7396069869974,ButtonPress,"Yes, in the starlight he could see the trees stripped of their leaves.",TwoSentences,,1.0,0.467986488998577,1.0,True,True
864,FED20220203a_3T2,6,S,1,1,11,106.725619536999,ButtonPress,"Yes, Winston took the clothesbrush out of the closet and went to work.",TwoSentences,,1.0,0.403306227999565,1.0,True,True
864,FED20220203a_3T2,6,S,1,1,12,115.726965734,ButtonPress,"No, he seemed to be looking at a point above the little window.",TwoSentences,,1.0,0.434148501000891,1.0,True,True
864,FED20220203a_3T2,6,N,1,1,13,136.113789423998,MemoryAll,Nonword_sequence,OneSentence,2.0,2.0,1.15618320700014,1.0,True,True
864,FED20220203a_3T2,6,N,1,1,14,145.114504593999,MemoryAll,Nonword_sequence,OneSentence,2.0,2.0,0.896861982997507,1.0,True,True
864,FED20220203a_3T2,6,N,1,1,15,154.115518269999,MemoryAll,Nonword_sequence,OneSentence,2.0,2.0,0.873766840999451,1.0,True,True
864,FED20220203a_3T2,6,S,1,1,16,165.734023834,ButtonPress,"No, Susan and Julia ripped strips from their clothing and bound the injury.",TwoSentences,,1.0,0.484653581999737,1.0,True,True
864,FED20220203a_3T2,6,S,1,1,17,174.735482063999,ButtonPress,"No, there are thousands of square miles of salt pan which are hideous.",TwoSentences,,1.0,0.435813814001449,1.0,True,True
864,FED20220203a_3T2,6,S,1,1,18,183.736952527997,ButtonPress,"No, he left the rest of his things and returned to the lobby.",TwoSentences,,1.0,0.352761107998958,1.0,True,True
864,FED20220203a_3T2,6,N,1,1,19,190.105784066,MemoryAll,Nonword_sequence,OneSentence,2.0,2.0,1.17957638499865,1.0,True,True
864,FED20220203a_3T2,6,N,1,1,20,199.107305983998,MemoryAll,Nonword_sequence,OneSentence,1.0,1.0,0.624140889001865,1.0,True,True
864,FED20220203a_3T2,6,N,1,1,21,208.108142728001,MemoryAll,Nonword_sequence,OneSentence,1.0,1.0,1.51675982799861,1.0,True,True
864,FED20220203a_3T2,6,S,1,1,22,219.727809972999,ButtonPress,"Yes, many times since his death that memory had worried and troubled her.",TwoSentences,,1.0,0.349680489001912,1.0,True,True
864,FED20220203a_3T2,6,S,1,1,23,228.727611410999,ButtonPress,"Yes, he avoided showing any surprise or annoyance when no one answered him.",TwoSentences,,1.0,0.384430635000172,1.0,True,True
864,FED20220203a_3T2,6,S,1,1,24,237.729137626,ButtonPress,"Yes, Keith told Penny about his dream to return to India and Burma.",TwoSentences,,1.0,0.336208533997706,1.0,True,True
864,FED20220203a_3T2,6,S,1,1,25,260.732876607999,ButtonPress,"No, computers are also used to keep branch inventories at more workable levels.",TwoSentences,,1.0,0.436249061000126,1.0,True,True
864,FED20220203a_3T2,6,S,1,1,26,269.735631518,ButtonPress,"No, people spend millions of dollars every year on fortune tellers and soothsayers.",TwoSentences,,1.0,0.433185702997434,1.0,True,True
864,FED20220203a_3T2,6,S,1,1,27,278.736010085999,ButtonPress,"Yes, it is very much a matter of building the foundations of community.",TwoSentences,,1.0,0.301423453998723,1.0,True,True
864,FED20220203a_3T2,6,N,1,1,28,285.154486905998,MemoryAll,Nonword_sequence,OneSentence,2.0,2.0,1.33399059300064,1.0,True,True
864,FED20220203a_3T2,6,N,1,1,29,294.105792823,MemoryAll,Nonword_sequence,OneSentence,1.0,1.0,0.784991480999452,1.0,True,True
864,FED20220203a_3T2,6,N,1,1,30,303.10736034,MemoryAll,Nonword_sequence,OneSentence,1.0,1.0,0.718694541999866,1.0,True,True
864,FED20220203a_3T2,6,S,1,1,31,314.725826195998,ButtonPress,"Yes, the images can easily be aligned with a high degree of accuracy.",TwoSentences,,1.0,0.367914481001208,1.0,True,True
864,FED20220203a_3T2,6,S,1,1,32,323.727506584997,ButtonPress,"Yes, a candle alight in the air directs its flame and smoke upwards.",TwoSentences,,1.0,0.371211647001473,1.0,True,True
864,FED20220203a_3T2,6,S,1,1,33,332.729526141,ButtonPress,"Yes, the target chart quickly and briefly tells you which additives do what.",TwoSentences,,1.0,0.468085368996981,1.0,True,True
864,FED20220203a_3T2,6,N,1,1,34,339.111706792999,MemoryAll,Nonword_sequence,OneSentence,2.0,2.0,1.02817812699868,1.0,True,True
864,FED20220203a_3T2,6,N,1,1,35,348.115222182998,MemoryAll,Nonword_sequence,OneSentence,1.0,1.0,0.863254673000483,1.0,True,True
864,FED20220203a_3T2,6,N,1,1,36,357.119459000998,MemoryAll,Nonword_sequence,OneSentence,1.0,1.0,1.91281620800146,1.0,True,True
864,FED20220203a_3T2,6,N,1,1,37,380.170272724998,MemoryAll,Nonword_sequence,OneSentence,1.0,1.0,0.945468891000928,1.0,True,True
864,FED20220203a_3T2,6,N,1,1,38,389.120478746998,MemoryAll,Nonword_sequence,OneSentence,2.0,1.0,0.699129741999059,1.0,False,False
864,FED20220203a_3T2,6,N,1,1,39,398.156183914998,MemoryAll,Nonword_sequence,OneSentence,2.0,2.0,0.704306763000204,1.0,True,True
864,FED20220203a_3T2,6,S,1,1,40,409.740431703998,ButtonPress,"Yes, Angelina turned and with an easy grace started walking toward the kitchen.",TwoSentences,,1.0,0.567646064002474,1.0,True,True
864,FED20220203a_3T2,6,S,1,1,41,418.726348707998,ButtonPress,"No, to the directors the problem appeared a matter of intrigue or diplomacy.",TwoSentences,,1.0,0.366749161003099,1.0,True,True
864,FED20220203a_3T2,6,S,1,1,42,427.728517027997,ButtonPress,"Yes, I went to visit Alfred in the Kingston Hospital a few times.",TwoSentences,,1.0,0.47326535799948,1.0,True,True
864,FED20220203a_3T2,6,S,1,1,43,436.729510875997,ButtonPress,"No, he sat down on an old box and focused on the problem.",TwoSentences,,1.0,0.382975723998243,1.0,True,True
864,FED20220203a_3T2,6,S,1,1,44,445.730355814998,ButtonPress,"No, almost no empirical work has been done on the problem of alienation.",TwoSentences,,1.0,0.40247870100211,1.0,True,True
864,FED20220203a_3T2,6,S,1,1,45,454.731103656999,ButtonPress,"No, to compute your adjusted gross income you just total all the items.",TwoSentences,,1.0,0.582810972002335,1.0,True,True
864,FED20220203a_3T2,6,N,1,1,46,461.115489882999,MemoryAll,Nonword_sequence,OneSentence,1.0,1.0,0.776867617001699,1.0,True,True
864,FED20220203a_3T2,6,N,1,1,47,470.166947928999,MemoryAll,Nonword_sequence,OneSentence,1.0,1.0,0.502051990002656,1.0,True,True
864,FED20220203a_3T2,6,N,1,1,48,479.118453489999,MemoryAll,Nonword_sequence,OneSentence,2.0,2.0,0.682632871998067,1.0,True,True
864,FED20220203a_3T2,6,N,1,2,1,14.1162422909983,MemoryAll,Nonword_sequence,OneSentence,2.0,2.0,0.712450300001365,1.0,True,True
864,FED20220203a_3T2,6,N,1,2,2,23.1176588599992,MemoryAll,Nonword_sequence,OneSentence,1.0,,,0.0,False,
864,FED20220203a_3T2,6,N,1,2,3,32.1191233649988,MemoryAll,Nonword_sequence,OneSentence,2.0,2.0,0.770541816000332,1.0,True,True
864,FED20220203a_3T2,6,S,1,2,4,43.7391552769986,ButtonPress,"No, if we look at recent art we find it preoccupied with form.",TwoSentences,,1.0,0.399821622999298,1.0,True,True
864,FED20220203a_3T2,6,S,1,2,5,52.7391630460006,ButtonPress,"No, he sat up and watched as they pulled themselves over the stern.",TwoSentences,,1.0,0.317878133999329,1.0,True,True
864,FED20220203a_3T2,6,S,1,2,6,61.7406259640011,ButtonPress,"No, we had become good friends during my stay at Cook County Hospital.",TwoSentences,,1.0,0.351326326999697,1.0,True,True
864,FED20220203a_3T2,6,S,1,2,7,70.7272748620017,ButtonPress,"No, this is an assumption with which few would be disposed to quarrel.",TwoSentences,,1.0,0.353155437001988,1.0,True,True
864,FED20220203a_3T2,6,S,1,2,8,79.7276924789985,ButtonPress,"Yes, Chinese and Indian merchants across the street were slamming their steel shutters.",TwoSentences,,1.0,0.436047060000419,1.0,True,True
864,FED20220203a_3T2,6,S,1,2,9,88.729841067001,ButtonPress,"No, it was a rough long ride through the mud and pot holes.",TwoSentences,,1.0,0.400590045999706,1.0,True,True
864,FED20220203a_3T2,6,N,1,2,10,95.1137544039993,MemoryAll,Nonword_sequence,OneSentence,1.0,1.0,0.508516215999407,1.0,True,True
864,FED20220203a_3T2,6,N,1,2,11,104.115707430999,MemoryAll,Nonword_sequence,OneSentence,2.0,2.0,0.553749683000206,1.0,True,True
864,FED20220203a_3T2,6,N,1,2,12,113.116738348999,MemoryAll,Nonword_sequence,OneSentence,1.0,2.0,1.0774388869977,1.0,False,False
864,FED20220203a_3T2,6,S,1,2,13,138.736502451,ButtonPress,"No, he gives credit for the promotion to his new outlook on life.",TwoSentences,,1.0,0.336883467000007,1.0,True,True
864,FED20220203a_3T2,6,S,1,2,14,147.737959506001,ButtonPress,"No, never again did he enter into the ritual of showing the apartment.",TwoSentences,,1.0,0.40122788699955,1.0,True,True
864,FED20220203a_3T2,6,S,1,2,15,156.739425188,ButtonPress,"Yes, a number of considerations suggest that this occurs early in the process.",TwoSentences,,1.0,0.38585804199829,1.0,True,True
864,FED20220203a_3T2,6,N,1,2,16,163.108198653001,MemoryAll,Nonword_sequence,OneSentence,2.0,2.0,0.697071954000421,1.0,True,True
864,FED20220203a_3T2,6,N,1,2,17,172.109113518,MemoryAll,Nonword_sequence,OneSentence,2.0,1.0,1.80600507299823,1.0,False,False
864,FED20220203a_3T2,6,N,1,2,18,181.126776964,MemoryAll,Nonword_sequence,OneSentence,2.0,1.0,2.50149421999959,1.0,False,False
864,FED20220203a_3T2,6,S,1,2,19,192.729722438999,ButtonPress,"Yes, Mike passed through it and moved toward the dark mass of horses.",TwoSentences,,1.0,0.435882736997883,1.0,True,True
864,FED20220203a_3T2,6,S,1,2,20,201.730095188999,ButtonPress,"Yes, after that he was never known to run or even walk fast.",TwoSentences,,1.0,0.351227950999601,1.0,True,True
864,FED20220203a_3T2,6,S,1,2,21,210.731567015002,ButtonPress,"Yes, his wife was in delicate health and nursing an infant with measles.",TwoSentences,,1.0,0.301273205997859,1.0,True,True
864,FED20220203a_3T2,6,N,1,2,22,217.115983958,MemoryAll,Nonword_sequence,OneSentence,2.0,2.0,0.628942981998989,1.0,True,True
864,FED20220203a_3T2,6,N,1,2,23,226.117446503002,MemoryAll,Nonword_sequence,OneSentence,2.0,2.0,0.604587327001354,1.0,True,True
864,FED20220203a_3T2,6,N,1,2,24,235.118862520001,MemoryAll,Nonword_sequence,OneSentence,1.0,1.0,1.6411921009967,1.0,True,True
864,FED20220203a_3T2,6,N,1,2,25,258.107138906998,MemoryAll,Nonword_sequence,OneSentence,1.0,2.0,0.967772182000772,1.0,False,False
864,FED20220203a_3T2,6,N,1,2,26,267.108374514999,MemoryAll,Nonword_sequence,OneSentence,2.0,2.0,0.61508168599903,1.0,True,True
864,FED20220203a_3T2,6,N,1,2,27,276.108898011,MemoryAll,Nonword_sequence,OneSentence,1.0,1.0,1.22570869899937,1.0,True,True
864,FED20220203a_3T2,6,S,1,2,28,287.761367166,ButtonPress,"No, there was little likelihood of any customers walking in at that hour.",TwoSentences,,1.0,0.436984184001631,1.0,True,True
864,FED20220203a_3T2,6,S,1,2,29,296.728742011001,ButtonPress,"Yes, just the barest suggestion of a heel is found on teenage pumps.",TwoSentences,,1.0,0.252346858000237,1.0,True,True
864,FED20220203a_3T2,6,S,1,2,30,305.791153069,ButtonPress,"Yes, an objective scale was developed for rating school neighborhoods from these data.",TwoSentences,,1.0,0.335997071000747,1.0,True,True
864,FED20220203a_3T2,6,N,1,2,31,312.114749003998,MemoryAll,Nonword_sequence,OneSentence,1.0,1.0,0.800648833002924,1.0,True,True
864,FED20220203a_3T2,6,N,1,2,32,321.117136882,MemoryAll,Nonword_sequence,OneSentence,2.0,2.0,0.731800866000412,1.0,True,True
864,FED20220203a_3T2,6,N,1,2,33,330.118758253,MemoryAll,Nonword_sequence,OneSentence,2.0,1.0,1.00700152399804,1.0,False,False
864,FED20220203a_3T2,6,S,1,2,34,341.738005985,ButtonPress,"Yes, the roof blocks are in two layers and are not mortared together.",TwoSentences,,1.0,0.401949191000313,1.0,True,True
864,FED20220203a_3T2,6,S,1,2,35,350.741125355002,ButtonPress,"Yes, he stopped pacing to stare at Hal with his pale blue eyes.",TwoSentences,,1.0,0.318994985002064,1.0,True,True
864,FED20220203a_3T2,6,S,1,2,36,359.728514562001,ButtonPress,"No, he called the store owner and together they went into the stockroom.",TwoSentences,,1.0,0.336313310999685,1.0,True,True
864,FED20220203a_3T2,6,S,1,2,37,382.727014331998,ButtonPress,"Yes, the patrons included local taxi drivers and art students and small shopkeepers.",TwoSentences,,1.0,0.401145183001063,1.0,True,True
864,FED20220203a_3T2,6,S,1,2,38,391.728468264999,ButtonPress,"Yes, Kyoto is the ancient capital of Japan and still its cultural center.",TwoSentences,,1.0,0.413741292999475,1.0,True,True
864,FED20220203a_3T2,6,S,1,2,39,400.729323715001,ButtonPress,"No, need for novelty may be a symptom of cultural fatigue and instability.",TwoSentences,,1.0,0.367161231999489,1.0,True,True
864,FED20220203a_3T2,6,N,1,2,40,407.115026523999,MemoryAll,Nonword_sequence,OneSentence,1.0,1.0,0.755569388002186,1.0,True,True
864,FED20220203a_3T2,6,N,1,2,41,416.149323596001,MemoryAll,Nonword_sequence,OneSentence,1.0,1.0,1.16640264299713,1.0,True,True
864,FED20220203a_3T2,6,N,1,2,42,425.116659071999,MemoryAll,Nonword_sequence,OneSentence,1.0,2.0,0.865590762998181,1.0,False,False
864,FED20220203a_3T2,6,N,1,2,43,434.117957628001,MemoryAll,Nonword_sequence,OneSentence,1.0,1.0,0.628839495002467,1.0,True,True
864,FED20220203a_3T2,6,N,1,2,44,443.119459867001,MemoryAll,Nonword_sequence,OneSentence,1.0,1.0,1.32340051900246,1.0,True,True
864,FED20220203a_3T2,6,N,1,2,45,452.120879693,MemoryAll,Nonword_sequence,OneSentence,2.0,2.0,0.73839972299902,1.0,True,True
864,FED20220203a_3T2,6,S,1,2,46,463.723939077001,ButtonPress,"Yes, at once a bevy of dogs was snapping and snarling around him.",TwoSentences,,1.0,0.397492774001876,1.0,True,True
864,FED20220203a_3T2,6,S,1,2,47,472.725550371,ButtonPress,"Yes, this happened in the middle of a drinking bout with another bum.",TwoSentences,,1.0,0.287713532001362,1.0,True,True
864,FED20220203a_3T2,6,S,1,2,48,481.726766250002,ButtonPress,"No, you could win a popularity contest at that school without any trouble.",TwoSentences,,1.0,0.381541033002577,1.0,True,True
864,FED20220203a_3T2,4,S,3,3,1,14.1178890840019,ComprehensionQ,After that they had sat for five minutes without saying a word.,TwoSentences,2.0,2.0,2.18084086499948,1.0,True,True
864,FED20220203a_3T2,4,S,3,3,2,22.1375905170025,ComprehensionQ,This is a significant advance but its importance should not be exaggerated.,TwoSentences,1.0,,,0.0,False,
864,FED20220203a_3T2,4,S,3,3,3,30.1204485660019,ComprehensionQ,It appeared that the theory could be saved in one way only.,TwoSentences,1.0,1.0,2.2560062090015,1.0,True,True
864,FED20220203a_3T2,4,N,3,3,4,38.1052040620016,MemoryAll,Nonword_sequence,OneSentence,1.0,1.0,0.941948972002137,1.0,True,True
864,FED20220203a_3T2,4,N,3,3,5,46.1230709480005,MemoryAll,Nonword_sequence,OneSentence,1.0,1.0,0.562385440000071,1.0,True,True
864,FED20220203a_3T2,4,N,3,3,6,54.109206404999,MemoryAll,Nonword_sequence,OneSentence,2.0,1.0,0.847496438000235,1.0,False,False
864,FED20220203a_3T2,4,N,3,3,7,62.1423414070014,MemoryAll,Nonword_sequence,OneSentence,1.0,1.0,0.895695463001175,1.0,True,True
864,FED20220203a_3T2,4,N,3,3,8,70.126968462002,MemoryAll,Nonword_sequence,OneSentence,1.0,2.0,0.787988443000359,1.0,False,False
864,FED20220203a_3T2,4,N,3,3,9,78.1130024300001,MemoryAll,Nonword_sequence,OneSentence,2.0,1.0,0.770148740997683,1.0,False,False
864,FED20220203a_3T2,4,S,3,3,10,86.1137258740018,ComprehensionQ,There is a tangible feeling in the air of revulsion toward politics.,TwoSentences,2.0,2.0,1.96657779000088,1.0,True,True
864,FED20220203a_3T2,4,S,3,3,11,94.1324087190005,ComprehensionQ,Student leaders began sporadic efforts to negotiate theater integration several months ago.,TwoSentences,2.0,1.0,2.97333787400203,1.0,False,False
864,FED20220203a_3T2,4,S,3,3,12,102.131598674001,ComprehensionQ,The hull was also a result of almost a decade of work.,TwoSentences,1.0,1.0,1.78660824800318,1.0,True,True
864,FED20220203a_3T2,4,N,3,3,13,124.119056848001,MemoryAll,Nonword_sequence,OneSentence,1.0,1.0,0.804130751999764,1.0,True,True
864,FED20220203a_3T2,4,N,3,3,14,132.103674479,MemoryAll,Nonword_sequence,OneSentence,1.0,1.0,0.479824530000769,1.0,True,True
864,FED20220203a_3T2,4,N,3,3,15,140.105801463,MemoryAll,Nonword_sequence,OneSentence,2.0,2.0,1.40700019899668,1.0,True,True
864,FED20220203a_3T2,4,S,3,3,16,148.124481782001,ComprehensionQ,The exuberance on this occasion set a standard for subsequent Dartmouth gatherings.,TwoSentences,1.0,1.0,1.2472124800006,1.0,True,True
864,FED20220203a_3T2,4,S,3,3,17,156.168257462999,ComprehensionQ,Someone had moved beyond the range of the light from the window.,TwoSentences,1.0,1.0,1.71424308300266,1.0,True,True
864,FED20220203a_3T2,4,S,3,3,18,164.126362645002,ComprehensionQ,No one suggested that the ethical effects of the art were irrelevant.,TwoSentences,2.0,2.0,2.08660188999784,1.0,True,True
864,FED20220203a_3T2,4,N,3,3,19,172.111498897,MemoryAll,Nonword_sequence,OneSentence,2.0,2.0,0.971431860998564,1.0,True,True
864,FED20220203a_3T2,4,N,3,3,20,180.113399833001,MemoryAll,Nonword_sequence,OneSentence,2.0,1.0,1.64521861499816,1.0,False,False
864,FED20220203a_3T2,4,N,3,3,21,188.146392859002,MemoryAll,Nonword_sequence,OneSentence,2.0,2.0,0.900937721999071,1.0,True,True
864,FED20220203a_3T2,4,S,3,3,22,196.114148330002,ComprehensionQ,We made it back to the Harbor in less than four minutes.,TwoSentences,2.0,2.0,1.44856515599895,1.0,True,True
864,FED20220203a_3T2,4,S,3,3,23,204.131808386002,ComprehensionQ,And this was before he began to play his startlingly beautiful jazz.,TwoSentences,1.0,2.0,2.60531293800159,1.0,False,False
864,FED20220203a_3T2,4,S,3,3,24,212.116770205001,ComprehensionQ,The others likewise had hidden themselves in the grass and the brush.,TwoSentences,2.0,2.0,1.95966815299835,1.0,True,True
864,FED20220203a_3T2,4,S,3,3,25,234.169427604,ComprehensionQ,Within two weeks Warren was ringing the bell at the abbey gate.,TwoSentences,2.0,2.0,1.65099431300041,1.0,True,True
864,FED20220203a_3T2,4,S,3,3,26,242.194305762001,ComprehensionQ,This procedure is much more effective than giving out a membership packet.,TwoSentences,1.0,1.0,1.83201578700027,1.0,True,True
864,FED20220203a_3T2,4,S,3,3,27,250.174479752,ComprehensionQ,She blew her nose on a tissue and opened the coke bottle.,TwoSentences,1.0,1.0,1.69900480399883,1.0,True,True
864,FED20220203a_3T2,4,N,3,3,28,258.175205631,MemoryAll,Nonword_sequence,OneSentence,1.0,1.0,0.66331429300044,1.0,True,True
864,FED20220203a_3T2,4,N,3,3,29,266.159793486,MemoryAll,Nonword_sequence,OneSentence,2.0,2.0,0.734688387998176,1.0,True,True
864,FED20220203a_3T2,4,N,3,3,30,274.110242627001,MemoryAll,Nonword_sequence,OneSentence,2.0,2.0,0.856785074996878,1.0,True,True
864,FED20220203a_3T2,4,S,3,3,31,282.111517118999,ComprehensionQ,The thin man moved swiftly to the phone and dialed a number.,TwoSentences,1.0,1.0,1.72531805800099,1.0,True,True
864,FED20220203a_3T2,4,S,3,3,32,290.146111329999,ComprehensionQ,Her mother also was a person of superior mind and broad interests.,TwoSentences,2.0,2.0,1.05490555199867,1.0,True,True
864,FED20220203a_3T2,4,S,3,3,33,298.114064507001,ComprehensionQ,They are the most beautiful part of that little piece of nature.,TwoSentences,2.0,2.0,2.21647341599964,1.0,True,True
864,FED20220203a_3T2,4,N,3,3,34,306.115493715002,MemoryAll,Nonword_sequence,OneSentence,1.0,2.0,0.721742721001647,1.0,False,False
864,FED20220203a_3T2,4,N,3,3,35,314.131776149999,MemoryAll,Nonword_sequence,OneSentence,2.0,1.0,1.54780905999723,1.0,False,False
864,FED20220203a_3T2,4,N,3,3,36,322.117507030001,MemoryAll,Nonword_sequence,OneSentence,2.0,1.0,0.670602573001815,1.0,False,False
864,FED20220203a_3T2,4,N,3,3,37,344.204906030001,MemoryAll,Nonword_sequence,OneSentence,1.0,1.0,0.899345470999833,1.0,True,True
864,FED20220203a_3T2,4,N,3,3,38,352.110142371002,MemoryAll,Nonword_sequence,OneSentence,1.0,1.0,1.03467235000062,1.0,True,True
864,FED20220203a_3T2,4,N,3,3,39,360.129511900002,MemoryAll,Nonword_sequence,OneSentence,2.0,2.0,0.898269536999578,1.0,True,True
864,FED20220203a_3T2,4,S,3,3,40,368.185888516,ComprehensionQ,The windshield glass is shatterproof and plexiglas is used in the cabin.,TwoSentences,2.0,2.0,2.12327068599916,1.0,True,True
864,FED20220203a_3T2,4,S,3,3,41,376.114500880001,ComprehensionQ,Then he noticed that the dry wood of the wheels had swollen.,TwoSentences,1.0,1.0,1.36349363100089,1.0,True,True
864,FED20220203a_3T2,4,S,3,3,42,384.128185550002,ComprehensionQ,The Mayor is finding it awkward to campaign against his own record.,TwoSentences,2.0,2.0,1.39435359399795,1.0,True,True
864,FED20220203a_3T2,4,S,3,3,43,392.196106364001,ComprehensionQ,The continuing modernization of these forces is a costly but necessary process.,TwoSentences,1.0,1.0,1.5099496690018,1.0,True,True
864,FED20220203a_3T2,4,S,3,3,44,400.19835192,ComprehensionQ,Most of us would be willing to admit that forgiveness comes hard.,TwoSentences,2.0,2.0,1.57934934299919,1.0,True,True
864,FED20220203a_3T2,4,S,3,3,45,408.165227656002,ComprehensionQ,Whole families are moving and removal firms are booked for months ahead.,TwoSentences,1.0,1.0,1.82675139599814,1.0,True,True
864,FED20220203a_3T2,4,N,3,3,46,416.183360569001,MemoryAll,Nonword_sequence,OneSentence,2.0,1.0,0.741837767000106,1.0,False,False
864,FED20220203a_3T2,4,N,3,3,47,424.117955837002,MemoryAll,Nonword_sequence,OneSentence,1.0,2.0,1.03015238399894,1.0,False,False
864,FED20220203a_3T2,4,N,3,3,48,432.118658079002,MemoryAll,Nonword_sequence,OneSentence,1.0,2.0,1.29626891700173,1.0,False,False
864,FED20220203a_3T2,4,N,3,4,1,14.1175399019994,MemoryAll,Nonword_sequence,OneSentence,2.0,1.0,1.38430724900172,1.0,False,False
864,FED20220203a_3T2,4,N,3,4,2,22.1188301170005,MemoryAll,Nonword_sequence,OneSentence,2.0,1.0,1.14875540999856,1.0,False,False
864,FED20220203a_3T2,4,N,3,4,3,30.121316277,MemoryAll,Nonword_sequence,OneSentence,2.0,2.0,0.851313971001218,1.0,True,True
864,FED20220203a_3T2,4,S,3,4,4,38.1058755649974,ComprehensionQ,He wanted to go back to Harvard for another year of playwriting.,TwoSentences,2.0,2.0,1.7457272449974,1.0,True,True
864,FED20220203a_3T2,4,S,3,4,5,46.1070046899986,ComprehensionQ,Good radio drama has its own special demands that badly need reinvigoration.,TwoSentences,2.0,2.0,1.74411696400057,1.0,True,True
864,FED20220203a_3T2,4,S,3,4,6,54.1413503170006,ComprehensionQ,I crossed the beautifully furnished living room to the pale yellow phone.,TwoSentences,1.0,1.0,1.50003310900138,1.0,True,True
864,FED20220203a_3T2,4,S,3,4,7,62.1075488149982,ComprehensionQ,It was a simple ivory crucifix which my mother had given me.,TwoSentences,1.0,1.0,1.72061344399845,1.0,True,True
864,FED20220203a_3T2,4,S,3,4,8,70.109990211,ComprehensionQ,He enlisted a staff of loyal experts and of many zealous volunteers.,TwoSentences,1.0,1.0,1.30671221899684,1.0,True,True
864,FED20220203a_3T2,4,S,3,4,9,78.1280578419974,ComprehensionQ,When he gets the answers to his questions he will be discouraged.,TwoSentences,2.0,2.0,2.05248619000122,1.0,True,True
864,FED20220203a_3T2,4,N,3,4,10,86.129260447,MemoryAll,Nonword_sequence,OneSentence,1.0,1.0,0.956073817000288,1.0,True,True
864,FED20220203a_3T2,4,N,3,4,11,94.1138738909976,MemoryAll,Nonword_sequence,OneSentence,2.0,2.0,0.913512573999469,1.0,True,True
864,FED20220203a_3T2,4,N,3,4,12,102.198594822999,MemoryAll,Nonword_sequence,OneSentence,2.0,2.0,0.864376375000575,1.0,True,True
864,FED20220203a_3T2,4,S,3,4,13,124.119906608998,ComprehensionQ,In this way you will be able to detect any obvious mistakes.,TwoSentences,1.0,1.0,1.97891215700292,1.0,True,True
864,FED20220203a_3T2,4,S,3,4,14,132.118867806999,ComprehensionQ,We bought his records and played them in our schools and universities.,TwoSentences,2.0,2.0,1.94704705700133,1.0,True,True
864,FED20220203a_3T2,4,S,3,4,15,140.105813491999,ComprehensionQ,In this play there were so many characters and so much detail.,TwoSentences,1.0,1.0,0.989178160998563,1.0,True,True
864,FED20220203a_3T2,4,N,3,4,16,148.110813798001,MemoryAll,Nonword_sequence,OneSentence,1.0,1.0,0.996212631001981,1.0,True,True
864,FED20220203a_3T2,4,N,3,4,17,156.157417810999,MemoryAll,Nonword_sequence,OneSentence,1.0,1.0,0.954980017999333,1.0,True,True
864,FED20220203a_3T2,4,N,3,4,18,164.109209933998,MemoryAll,Nonword_sequence,OneSentence,1.0,2.0,1.14835854000194,1.0,False,False
864,FED20220203a_3T2,4,S,3,4,19,172.109611488999,ComprehensionQ,They adopted a program by which Louisiana was divided into five districts.,TwoSentences,1.0,1.0,1.12705715199991,1.0,True,True
864,FED20220203a_3T2,4,S,3,4,20,180.112157036998,ComprehensionQ,Their duties include evaluation of the information collected and preparation of recommendations.,TwoSentences,2.0,2.0,1.40976076200241,1.0,True,True
864,FED20220203a_3T2,4,S,3,4,21,188.113207907998,ComprehensionQ,They are trying to demonstrate some different ways of teaching and learning.,TwoSentences,2.0,2.0,2.78627933000098,1.0,True,True
864,FED20220203a_3T2,4,N,3,4,22,196.120452734998,MemoryAll,Nonword_sequence,OneSentence,1.0,1.0,0.695700500000385,1.0,True,True
864,FED20220203a_3T2,4,N,3,4,23,204.149847899,MemoryAll,Nonword_sequence,OneSentence,2.0,2.0,0.706238610000582,1.0,True,True
864,FED20220203a_3T2,4,N,3,4,24,212.116459494999,MemoryAll,Nonword_sequence,OneSentence,2.0,1.0,1.23984050299987,1.0,False,False
864,FED20220203a_3T2,4,N,3,4,25,234.186699844999,MemoryAll,Nonword_sequence,OneSentence,1.0,1.0,0.560706543001288,1.0,True,True
864,FED20220203a_3T2,4,N,3,4,26,242.105485054999,MemoryAll,Nonword_sequence,OneSentence,2.0,2.0,0.745673134002573,1.0,True,True
864,FED20220203a_3T2,4,N,3,4,27,250.106643421997,MemoryAll,Nonword_sequence,OneSentence,2.0,2.0,0.667133359002037,1.0,True,True
864,FED20220203a_3T2,4,S,3,4,28,258.140610902999,ComprehensionQ,The problem of solidarity and morale again involves the concept of values.,TwoSentences,1.0,1.0,2.12712434700006,1.0,True,True
864,FED20220203a_3T2,4,S,3,4,29,266.110438079999,ComprehensionQ,New ideas for improving nutrition came with the study of soil treatment.,TwoSentences,2.0,2.0,1.90692435099845,1.0,True,True
864,FED20220203a_3T2,4,S,3,4,30,274.1114471,ComprehensionQ,I wanted to help so that we could find time to play.,TwoSentences,2.0,2.0,1.21735755900227,1.0,True,True
864,FED20220203a_3T2,4,N,3,4,31,282.134158113,MemoryAll,Nonword_sequence,OneSentence,1.0,2.0,0.867463413000223,1.0,False,False
864,FED20220203a_3T2,4,N,3,4,32,290.112472231998,MemoryAll,Nonword_sequence,OneSentence,2.0,1.0,1.05672991400206,1.0,False,False
864,FED20220203a_3T2,4,N,3,4,33,298.113802574,MemoryAll,Nonword_sequence,OneSentence,1.0,1.0,0.760609887998726,1.0,True,True
864,FED20220203a_3T2,4,S,3,4,34,306.198557995998,ComprehensionQ,The red glow from the cove had died out of the sky.,TwoSentences,1.0,1.0,1.78085430300052,1.0,True,True
864,FED20220203a_3T2,4,S,3,4,35,314.134548284001,ComprehensionQ,He bases his approach on the belief that anything can follow anything.,TwoSentences,1.0,1.0,1.41967125099836,1.0,True,True
864,FED20220203a_3T2,4,S,3,4,36,322.117207788,ComprehensionQ,No client would ever think of asking him to do such things.,TwoSentences,1.0,1.0,1.74138807800045,1.0,True,True
864,FED20220203a_3T2,4,S,3,4,37,344.172689839001,ComprehensionQ,She had arrived this morning and come straight to the English Gardens.,TwoSentences,2.0,2.0,1.32838771899696,1.0,True,True
864,FED20220203a_3T2,4,S,3,4,38,352.156334885,ComprehensionQ,Copies of this letter were made avaliable to the press and public.,TwoSentences,2.0,2.0,2.18617977100075,1.0,True,True
864,FED20220203a_3T2,4,S,3,4,39,360.123906098997,ComprehensionQ,The atmosphere is that of an attractive private beach club at home.,TwoSentences,2.0,2.0,1.39873024900226,1.0,True,True
864,FED20220203a_3T2,4,N,3,4,40,368.115498756,MemoryAll,Nonword_sequence,OneSentence,1.0,2.0,1.01048670799719,1.0,False,False
864,FED20220203a_3T2,4,N,3,4,41,376.109930664999,MemoryAll,Nonword_sequence,OneSentence,1.0,1.0,1.51009881900245,1.0,True,True
864,FED20220203a_3T2,4,N,3,4,42,384.195869968,MemoryAll,Nonword_sequence,OneSentence,2.0,2.0,0.689309670000512,1.0,True,True
864,FED20220203a_3T2,4,N,3,4,43,392.113791342999,MemoryAll,Nonword_sequence,OneSentence,1.0,1.0,1.62926344999869,1.0,True,True
864,FED20220203a_3T2,4,N,3,4,44,400.147725544,MemoryAll,Nonword_sequence,OneSentence,2.0,1.0,0.812494899997546,1.0,False,False
864,FED20220203a_3T2,4,N,3,4,45,408.148696248998,MemoryAll,Nonword_sequence,OneSentence,1.0,1.0,1.02877400599755,1.0,True,True
864,FED20220203a_3T2,4,S,3,4,46,416.118011693998,ComprehensionQ,He believed in making inspiring speeches and he made a great many.,TwoSentences,2.0,2.0,1.64657173599699,1.0,True,True
864,FED20220203a_3T2,4,S,3,4,47,424.169245942998,ComprehensionQ,Most school systems today maintain a system of cumulative records of pupils.,TwoSentences,1.0,1.0,1.31471864600098,1.0,True,True
864,FED20220203a_3T2,4,S,3,4,48,432.184422047998,ComprehensionQ,Scotty accepted the decision with indifference and did not enter the arguments.,TwoSentences,1.0,1.0,2.07169437199991,1.0,True,True
864,FED20220203a_3T2,1,S,4,5,1,14.1168086739999,ButtonPress,He tilted his homely face toward the dry bed of the river.,OneSentence,,1.0,0.399569156998041,1.0,True,True
864,FED20220203a_3T2,1,S,4,5,2,20.2171632629979,ButtonPress,I was constantly searching for clues around the neighborhood of the hall.,OneSentence,,1.0,0.35079407000012,1.0,True,True
864,FED20220203a_3T2,1,S,4,5,3,26.2028935089984,ButtonPress,Mrs. Oliver is mother of five children and wife of a machinist.,OneSentence,,1.0,0.434329308998713,1.0,True,True
864,FED20220203a_3T2,1,N,4,5,4,32.2030567519978,ButtonPress,Nonword_sequence,OneSentence,,1.0,0.368900501001917,1.0,True,True
864,FED20220203a_3T2,1,N,4,5,5,38.1883079079998,ButtonPress,Nonword_sequence,OneSentence,,1.0,0.334568204001698,1.0,True,True
864,FED20220203a_3T2,1,N,4,5,6,44.1876542659993,ButtonPress,Nonword_sequence,OneSentence,,1.0,0.351243927998439,1.0,True,True
864,FED20220203a_3T2,1,N,4,5,7,50.1886545499983,ButtonPress,Nonword_sequence,OneSentence,,1.0,0.318910388999939,1.0,True,True
864,FED20220203a_3T2,1,N,4,5,8,56.1742654669979,ButtonPress,Nonword_sequence,OneSentence,,1.0,0.38565233099871,1.0,True,True
864,FED20220203a_3T2,1,N,4,5,9,62.1740077319992,ButtonPress,Nonword_sequence,OneSentence,,1.0,0.385287164001056,1.0,True,True
864,FED20220203a_3T2,1,S,4,5,10,68.1916043219971,ButtonPress,Whether or not Wally lost his job was no concern of mine.,OneSentence,,1.0,0.318135937002808,1.0,True,True
864,FED20220203a_3T2,1,S,4,5,11,74.1769363599997,ButtonPress,White House legislative aides were still confident the bill would pass intact.,OneSentence,,1.0,0.284284591001779,1.0,True,True
864,FED20220203a_3T2,1,S,4,5,12,80.1777326480005,ButtonPress,War is the result of mistrust and lack of understanding between people.,OneSentence,,1.0,0.317894313000579,1.0,True,True
864,FED20220203a_3T2,1,N,4,5,13,100.196045681998,ButtonPress,Nonword_sequence,OneSentence,,1.0,0.317469303001417,1.0,True,True
864,FED20220203a_3T2,1,N,4,5,14,106.181751721997,ButtonPress,Nonword_sequence,OneSentence,,1.0,0.402292925999063,1.0,True,True
864,FED20220203a_3T2,1,N,4,5,15,112.182986796,ButtonPress,Nonword_sequence,OneSentence,,1.0,0.125970958000835,1.0,True,True
864,FED20220203a_3T2,1,S,4,5,16,118.183787775997,ButtonPress,Some people can carve almost anything out of a piece of wood.,OneSentence,,1.0,0.266705232999811,1.0,True,True
864,FED20220203a_3T2,1,S,4,5,17,124.184071812997,ButtonPress,The size of wooden mold will determine the amount of clay needed.,OneSentence,,1.0,0.30128583899932,1.0,True,True
864,FED20220203a_3T2,1,S,4,5,18,130.183310483,ButtonPress,The importance of particle size in such aerosols has been thoroughly demonstrated.,OneSentence,,1.0,0.284629547000804,1.0,True,True
864,FED20220203a_3T2,1,N,4,5,19,136.185976966997,ButtonPress,Nonword_sequence,OneSentence,,1.0,0.366745408002316,1.0,True,True
864,FED20220203a_3T2,1,N,4,5,20,142.187732584,ButtonPress,Nonword_sequence,OneSentence,,1.0,0.319068197997694,1.0,True,True
864,FED20220203a_3T2,1,N,4,5,21,148.188907525,ButtonPress,Nonword_sequence,OneSentence,,1.0,0.384790583997528,1.0,True,True
864,FED20220203a_3T2,1,S,4,5,22,154.188852551,ButtonPress,Pictures can be taken in the public areas and when on tours.,OneSentence,,1.0,0.135312605001673,1.0,True,True
864,FED20220203a_3T2,1,S,4,5,23,160.190644688999,ButtonPress,Bare feet are better for such work than any form of slipper.,OneSentence,,1.0,0.317523663001339,1.0,True,True
864,FED20220203a_3T2,1,S,4,5,24,166.175249645999,ButtonPress,Somewhat similar investigations have been made by medical officers in other areas.,OneSentence,,1.0,0.284337877001235,1.0,True,True
864,FED20220203a_3T2,1,S,4,5,25,186.211813786998,ButtonPress,Her face seemed to float in an implausibly bright shaft of sunlight.,OneSentence,,1.0,0.351229661999241,1.0,True,True
864,FED20220203a_3T2,1,S,4,5,26,192.178480514998,ButtonPress,There was something maimed and crazy about its motion that disturbed them.,OneSentence,,1.0,0.401266422002664,1.0,True,True
864,FED20220203a_3T2,1,S,4,5,27,198.179460490999,ButtonPress,There was the revolution in Tibet which we pretended did not exist.,OneSentence,,1.0,0.351343465001264,1.0,True,True
864,FED20220203a_3T2,1,N,4,5,28,204.180376359,ButtonPress,Nonword_sequence,OneSentence,,1.0,0.45123299899933,1.0,True,True
864,FED20220203a_3T2,1,N,4,5,29,210.182922788998,ButtonPress,Nonword_sequence,OneSentence,,1.0,0.351255812998716,1.0,True,True
864,FED20220203a_3T2,1,N,4,5,30,216.183051830998,ButtonPress,Nonword_sequence,OneSentence,,1.0,0.335091089000343,1.0,True,True
864,FED20220203a_3T2,1,S,4,5,31,222.199414670999,ButtonPress,By the time he had smoked three cigarettes he had calmed down.,OneSentence,,1.0,0.145129704000283,1.0,True,True
864,FED20220203a_3T2,1,S,4,5,32,228.201418706998,ButtonPress,None of us was aware that the biggest fight was still ahead.,OneSentence,,1.0,0.367089949999354,1.0,True,True
864,FED20220203a_3T2,1,S,4,5,33,234.202787031998,ButtonPress,For just an instant he thought of appealing to them for help.,OneSentence,,1.0,0.31798281599913,1.0,True,True
864,FED20220203a_3T2,1,N,4,5,34,240.203312040998,ButtonPress,Nonword_sequence,OneSentence,,1.0,0.634493228000792,1.0,True,True
864,FED20220203a_3T2,1,N,4,5,35,246.205542078998,ButtonPress,Nonword_sequence,OneSentence,,1.0,0.349835777000408,1.0,True,True
864,FED20220203a_3T2,1,N,4,5,36,252.205899295001,ButtonPress,Nonword_sequence,OneSentence,,1.0,0.368385464000312,1.0,True,True
864,FED20220203a_3T2,1,N,4,5,37,272.191505777999,ButtonPress,Nonword_sequence,OneSentence,,1.0,0.552372361999005,1.0,True,True
864,FED20220203a_3T2,1,N,4,5,38,278.176686439998,ButtonPress,Nonword_sequence,OneSentence,,1.0,0.435968980997131,1.0,True,True
864,FED20220203a_3T2,1,N,4,5,39,284.193414693,ButtonPress,Nonword_sequence,OneSentence,,1.0,0.468872381999972,1.0,True,True
864,FED20220203a_3T2,1,S,4,5,40,290.178886594,ButtonPress,I got a quick look at their faces as we went past.,OneSentence,,1.0,0.4846014499999,1.0,True,True
864,FED20220203a_3T2,1,S,4,5,41,296.180139239998,ButtonPress,The right to leave legacies should be substantially reduced and ultimately eliminated.,OneSentence,,1.0,0.402763420002884,1.0,True,True
864,FED20220203a_3T2,1,S,4,5,42,302.181192374999,ButtonPress,I took the pail and shovel and went out on the porch.,OneSentence,,1.0,0.432958863999374,1.0,True,True
864,FED20220203a_3T2,1,S,4,5,43,308.198227861998,ButtonPress,He spent long hours before the TV spitting out promises of revenge.,OneSentence,,1.0,0.434581292000075,1.0,True,True
864,FED20220203a_3T2,1,S,4,5,44,314.182019260999,ButtonPress,Cranston residents have been generous contributors to the fund over the years.,OneSentence,,1.0,0.532767774999229,1.0,True,True
864,FED20220203a_3T2,1,S,4,5,45,320.200727422998,ButtonPress,Oranges and grapefruit are shipped from Florida weekly from an organic farm.,OneSentence,,1.0,0.399338481998711,1.0,True,True
864,FED20220203a_3T2,1,N,4,5,46,326.201842946,ButtonPress,Nonword_sequence,OneSentence,,1.0,0.583575347998703,1.0,True,True
864,FED20220203a_3T2,1,N,4,5,47,332.20295382,ButtonPress,Nonword_sequence,OneSentence,,1.0,0.940367939998396,1.0,True,True
864,FED20220203a_3T2,1,N,4,5,48,338.186587365999,ButtonPress,Nonword_sequence,OneSentence,,1.0,0.316579636000824,1.0,True,True
864,FED20220203a_3T2,1,N,4,6,1,14.116755154002,ButtonPress,Nonword_sequence,OneSentence,,1.0,0.371387456998491,1.0,True,True
864,FED20220203a_3T2,1,N,4,6,2,20.1860263220005,ButtonPress,Nonword_sequence,OneSentence,,1.0,0.370423606000259,1.0,True,True
864,FED20220203a_3T2,1,N,4,6,3,26.1866964410001,ButtonPress,Nonword_sequence,OneSentence,,1.0,0.368429023001227,1.0,True,True
864,FED20220203a_3T2,1,S,4,6,4,32.2036693190021,ButtonPress,Francesca and Herbert were among the few people we knew in Catalonia.,OneSentence,,1.0,0.336278050999681,1.0,True,True
864,FED20220203a_3T2,1,S,4,6,5,38.2034508659999,ButtonPress,I think you are being unfair to take these things up now.,OneSentence,,1.0,0.266053205999924,1.0,True,True
864,FED20220203a_3T2,1,S,4,6,6,44.2044604869989,ButtonPress,He does not seem to have caught the subtleties of the man.,OneSentence,,1.0,0.302941988000384,1.0,True,True
864,FED20220203a_3T2,1,S,4,6,7,50.1906208820001,ButtonPress,He looked for the source of the noise that had awakened him.,OneSentence,,1.0,0.266307882000547,1.0,True,True
864,FED20220203a_3T2,1,S,4,6,8,56.1749139300009,ButtonPress,He considered opening a can of beer but vetoed that idea too.,OneSentence,,1.0,0.149191083000915,1.0,True,True
864,FED20220203a_3T2,1,S,4,6,9,62.1746417030008,ButtonPress,This expansion has been going on for an estimated eight billion years.,OneSentence,,1.0,0.333238795999932,1.0,True,True
864,FED20220203a_3T2,1,N,4,6,10,68.1922958870018,ButtonPress,Nonword_sequence,OneSentence,,1.0,0.383414115000051,1.0,True,True
864,FED20220203a_3T2,1,N,4,6,11,74.1775609739998,ButtonPress,Nonword_sequence,OneSentence,,1.0,0.317876405999414,1.0,True,True
864,FED20220203a_3T2,1,N,4,6,12,80.1942357090011,ButtonPress,Nonword_sequence,OneSentence,,1.0,0.301967485997011,1.0,True,True
864,FED20220203a_3T2,1,S,4,6,13,100.198876126,ButtonPress,Some of the Island is sand and is not suitable for living.,OneSentence,,1.0,0.317502126999898,1.0,True,True
864,FED20220203a_3T2,1,S,4,6,14,106.181822512001,ButtonPress,Parents are often concerned that orthodontic appliances may cause teeth to decay.,OneSentence,,1.0,0.142542656001751,1.0,True,True
864,FED20220203a_3T2,1,S,4,6,15,112.199529468999,ButtonPress,Curt was too involved in his own problems to pay much attention.,OneSentence,,1.0,0.386054234000767,1.0,True,True
864,FED20220203a_3T2,1,N,4,6,16,118.185205479,ButtonPress,Nonword_sequence,OneSentence,,1.0,0.333938087998831,1.0,True,True
864,FED20220203a_3T2,1,N,4,6,17,124.200462117002,ButtonPress,Nonword_sequence,OneSentence,,1.0,0.401339878000726,1.0,True,True
864,FED20220203a_3T2,1,N,4,6,18,130.187113669999,ButtonPress,Nonword_sequence,OneSentence,,1.0,0.401336984999944,1.0,True,True
864,FED20220203a_3T2,1,S,4,6,19,136.185502241002,ButtonPress,The purchasers rejected the order in two letters written in vigorous terms.,OneSentence,,1.0,0.285265082999103,1.0,True,True
864,FED20220203a_3T2,1,S,4,6,20,142.204305309002,ButtonPress,I knew in that moment that I did not have any choice.,OneSentence,,1.0,0.301205700001447,1.0,True,True
864,FED20220203a_3T2,1,S,4,6,21,148.188656565999,ButtonPress,The two lawmen halted their wagon about twenty yards from the door.,OneSentence,,1.0,0.336155500001041,1.0,True,True
864,FED20220203a_3T2,1,N,4,6,22,154.173740275,ButtonPress,Nonword_sequence,OneSentence,,1.0,0.435218434999115,1.0,True,True
864,FED20220203a_3T2,1,N,4,6,23,160.175366980002,ButtonPress,Nonword_sequence,OneSentence,,1.0,0.401440626003023,1.0,True,True
864,FED20220203a_3T2,1,N,4,6,24,166.174862923999,ButtonPress,Nonword_sequence,OneSentence,,1.0,0.351880436999636,1.0,True,True
864,FED20220203a_3T2,1,N,4,6,25,186.196439040999,ButtonPress,Nonword_sequence,OneSentence,,1.0,0.434696672000427,1.0,True,True
864,FED20220203a_3T2,1,N,4,6,26,192.18070542,ButtonPress,Nonword_sequence,OneSentence,,1.0,0.401037186999019,1.0,True,True
864,FED20220203a_3T2,1,N,4,6,27,198.181294547001,ButtonPress,Nonword_sequence,OneSentence,,1.0,0.40202787599992,1.0,True,True
864,FED20220203a_3T2,1,S,4,6,28,204.182599796,ButtonPress,Deans can form an important bridge between the president and the faculty.,OneSentence,,1.0,0.268018787999608,1.0,True,True
864,FED20220203a_3T2,1,S,4,6,29,210.182053975001,ButtonPress,Today whole grains are freshly ground every day and baked into bread.,OneSentence,,1.0,0.384536497000227,1.0,True,True
864,FED20220203a_3T2,1,S,4,6,30,216.183024350001,ButtonPress,Benson grinned and flipped a rock with his thumb like a marble.,OneSentence,,1.0,0.317934091999632,1.0,True,True
864,FED20220203a_3T2,1,N,4,6,31,222.184037737999,ButtonPress,Nonword_sequence,OneSentence,,1.0,0.402104398002848,1.0,True,True
864,FED20220203a_3T2,1,N,4,6,32,228.186299419001,ButtonPress,Nonword_sequence,OneSentence,,1.0,0.567847128000722,1.0,True,True
864,FED20220203a_3T2,1,N,4,6,33,234.187477559,ButtonPress,Nonword_sequence,OneSentence,,1.0,0.350080161999358,1.0,True,True
864,FED20220203a_3T2,1,S,4,6,34,240.188102772001,ButtonPress,Anne picked up the towel she was hemming for the hospital guild.,OneSentence,,1.0,0.367245449997426,1.0,True,True
864,FED20220203a_3T2,1,S,4,6,35,246.187940389002,ButtonPress,What mattered was that a new concept of Americans was being born.,OneSentence,,1.0,0.0387798419978935,1.0,True,True
864,FED20220203a_3T2,1,S,4,6,36,252.189225769001,ButtonPress,I asked about the battle between life and death in his plays.,OneSentence,,1.0,0.145453115001146,1.0,True,True
864,FED20220203a_3T2,1,S,4,6,37,272.208378142001,ButtonPress,Montgomery knew all the national leaders up to the time of Kennedy.,OneSentence,,1.0,0.367275282002083,1.0,True,True
864,FED20220203a_3T2,1,S,4,6,38,278.211343956002,ButtonPress,Better show it to Fiona and see if he had omitted anything.,OneSentence,,1.0,0.32270052199965,1.0,True,True
864,FED20220203a_3T2,1,S,4,6,39,284.177489487,ButtonPress,Knowledge gained from studying earthquake waves has been applied in various fields.,OneSentence,,1.0,0.43465305099744,1.0,True,True
864,FED20220203a_3T2,1,N,4,6,40,290.195100577999,ButtonPress,Nonword_sequence,OneSentence,,1.0,0.350195860002714,1.0,True,True
864,FED20220203a_3T2,1,N,4,6,41,296.179408144999,ButtonPress,Nonword_sequence,OneSentence,,1.0,0.284621253002115,1.0,True,True
864,FED20220203a_3T2,1,N,4,6,42,302.180400830999,ButtonPress,Nonword_sequence,OneSentence,,1.0,0.46795923800164,1.0,True,True
864,FED20220203a_3T2,1,N,4,6,43,308.182353276999,ButtonPress,Nonword_sequence,OneSentence,,1.0,0.485039413000777,1.0,True,True
864,FED20220203a_3T2,1,N,4,6,44,314.182362367999,ButtonPress,Nonword_sequence,OneSentence,,1.0,0.402872375998413,1.0,True,True
864,FED20220203a_3T2,1,N,4,6,45,320.184109810001,ButtonPress,Nonword_sequence,OneSentence,,1.0,0.402936042999499,1.0,True,True
864,FED20220203a_3T2,1,S,4,6,46,326.18438717,ButtonPress,The trial had packed the large courtroom for more than a week.,OneSentence,,1.0,0.437328533000255,1.0,True,True
864,FED20220203a_3T2,1,S,4,6,47,332.185535719,ButtonPress,Two sharply contrasting places designed for public enjoyment are now on display.,OneSentence,,1.0,0.3005445350027,1.0,True,True
864,FED20220203a_3T2,1,S,4,6,48,338.202509381001,ButtonPress,Doc Abel was busy up front with some of his live patients.,OneSentence,,1.0,0.38424852299795,1.0,True,True
864,FED20220203a_3T2,2,S,5,7,1,14.110340493,MemoryAll,He had shut his door with the brass number screwed to it.,OneSentence,2.0,2.0,0.951661571998557,1.0,True,True
864,FED20220203a_3T2,2,S,5,7,2,21.111502022999,MemoryAll,From the outside it was an ordinary enough house of the gentry.,OneSentence,1.0,1.0,0.935286961997917,1.0,True,True
864,FED20220203a_3T2,2,S,5,7,3,28.1119419759998,MemoryAll,It would have been easy to identify as opium by its odor.,OneSentence,2.0,2.0,1.09971735900035,1.0,True,True
864,FED20220203a_3T2,2,N,5,7,4,35.1138291239986,MemoryAll,Nonword_sequence,OneSentence,1.0,1.0,1.30147887400017,1.0,True,True
864,FED20220203a_3T2,2,N,5,7,5,42.1143633399988,MemoryAll,Nonword_sequence,OneSentence,2.0,2.0,0.602331945003243,1.0,True,True
864,FED20220203a_3T2,2,N,5,7,6,49.1156909499987,MemoryAll,Nonword_sequence,OneSentence,2.0,2.0,0.669536026001879,1.0,True,True
864,FED20220203a_3T2,2,N,5,7,7,56.1170907899977,MemoryAll,Nonword_sequence,OneSentence,2.0,2.0,0.935004856000887,1.0,True,True
864,FED20220203a_3T2,2,N,5,7,8,63.1172037819997,MemoryAll,Nonword_sequence,OneSentence,2.0,2.0,1.03568786399774,1.0,True,True
864,FED20220203a_3T2,2,N,5,7,9,70.1196482199994,MemoryAll,Nonword_sequence,OneSentence,2.0,,,0.0,False,
864,FED20220203a_3T2,2,S,5,7,10,77.1195268489973,MemoryAll,He also reminded himself that he had an unusual number of possibilities.,OneSentence,2.0,2.0,0.952555841999128,1.0,True,True
864,FED20220203a_3T2,2,S,5,7,11,84.1145713990009,MemoryAll,He reminded Matsuo of a similar thing he had witnessed in China.,OneSentence,1.0,1.0,0.71127289099968,1.0,True,True
864,FED20220203a_3T2,2,S,5,7,12,91.1065160239996,MemoryAll,I saw him myself and it was done after consultation with Cromwell.,OneSentence,1.0,2.0,0.904006328000833,1.0,False,False
864,FED20220203a_3T2,2,N,5,7,13,112.158381581998,MemoryAll,Nonword_sequence,OneSentence,1.0,1.0,1.36828139800127,1.0,True,True
864,FED20220203a_3T2,2,N,5,7,14,119.110393388,MemoryAll,Nonword_sequence,OneSentence,1.0,1.0,0.967703521000658,1.0,True,True
864,FED20220203a_3T2,2,N,5,7,15,126.111423139999,MemoryAll,Nonword_sequence,OneSentence,1.0,1.0,0.62586716000078,1.0,True,True
864,FED20220203a_3T2,2,S,5,7,16,133.111940143001,MemoryAll,Anne waited until the door had slammed and picked up the coffeepot.,OneSentence,1.0,1.0,1.06932373499876,1.0,True,True
864,FED20220203a_3T2,2,S,5,7,17,140.145196205998,MemoryAll,The marine commenced to weep and it blighted the sense of enjoyment.,OneSentence,2.0,2.0,0.644063179999648,1.0,True,True
864,FED20220203a_3T2,2,S,5,7,18,147.114309836998,MemoryAll,Sometimes I guessed it was because the rain squall had changed direction.,OneSentence,1.0,1.0,0.952495071000158,1.0,True,True
864,FED20220203a_3T2,2,N,5,7,19,154.116431324997,MemoryAll,Nonword_sequence,OneSentence,2.0,1.0,0.566999096001382,1.0,False,False
864,FED20220203a_3T2,2,N,5,7,20,161.116487286999,MemoryAll,Nonword_sequence,OneSentence,1.0,1.0,1.1525354559999,1.0,True,True
864,FED20220203a_3T2,2,N,5,7,21,168.117679037998,MemoryAll,Nonword_sequence,OneSentence,1.0,2.0,0.868370984000649,1.0,False,False
864,FED20220203a_3T2,2,S,5,7,22,175.118778178999,MemoryAll,I spun about and clattered through the front room to the door.,OneSentence,2.0,2.0,0.660686135997821,1.0,True,True
864,FED20220203a_3T2,2,S,5,7,23,182.186024373001,MemoryAll,But the information on the dynamics of population was often quite misleading.,OneSentence,1.0,1.0,0.91595573900122,1.0,True,True
864,FED20220203a_3T2,2,S,5,7,24,189.104654946997,MemoryAll,She would rather live in danger than die of loneliness and boredom.,OneSentence,1.0,1.0,0.699402715999895,1.0,True,True
864,FED20220203a_3T2,2,S,5,7,25,210.159161634998,MemoryAll,Ramey saw sunlight touch the curly blonde hairs on the brown skin.,OneSentence,1.0,1.0,0.705355276000773,1.0,True,True
864,FED20220203a_3T2,2,S,5,7,26,217.109982718997,MemoryAll,He told himself he had never seen two people eat so much.,OneSentence,2.0,2.0,0.88453870399826,1.0,True,True
864,FED20220203a_3T2,2,S,5,7,27,224.110146991999,MemoryAll,This will help him to get out of his little tackle shop.,OneSentence,2.0,2.0,1.13643139600026,1.0,True,True
864,FED20220203a_3T2,2,N,5,7,28,231.111231103998,MemoryAll,Nonword_sequence,OneSentence,1.0,1.0,0.661438888000703,1.0,True,True
864,FED20220203a_3T2,2,N,5,7,29,238.112374161999,MemoryAll,Nonword_sequence,OneSentence,2.0,2.0,0.884245238998119,1.0,True,True
864,FED20220203a_3T2,2,N,5,7,30,245.113558154,MemoryAll,Nonword_sequence,OneSentence,1.0,1.0,0.530798668998614,1.0,True,True
864,FED20220203a_3T2,2,S,5,7,31,252.165669395999,MemoryAll,Down the tree he scrambled and knelt at the edge of foliage.,OneSentence,2.0,2.0,0.656887637000182,1.0,True,True
864,FED20220203a_3T2,2,S,5,7,32,259.115308278,MemoryAll,He is better fitted to perform his social life among his fellows.,OneSentence,2.0,2.0,0.981256058999861,1.0,True,True
864,FED20220203a_3T2,2,S,5,7,33,266.206873208001,MemoryAll,His small black eyes darted inside the olive oval of his face.,OneSentence,2.0,2.0,1.08508782399804,1.0,True,True
864,FED20220203a_3T2,2,N,5,7,34,273.118916989999,MemoryAll,Nonword_sequence,OneSentence,1.0,2.0,1.03566913399845,1.0,False,False
864,FED20220203a_3T2,2,N,5,7,35,280.119646257001,MemoryAll,Nonword_sequence,OneSentence,1.0,1.0,0.989126641001349,1.0,True,True
864,FED20220203a_3T2,2,N,5,7,36,287.120373071,MemoryAll,Nonword_sequence,OneSentence,2.0,2.0,0.984757124002499,1.0,True,True
864,FED20220203a_3T2,2,N,5,7,37,308.141421229,MemoryAll,Nonword_sequence,OneSentence,2.0,1.0,1.73577357700196,1.0,False,False
864,FED20220203a_3T2,2,N,5,7,38,315.109242156999,MemoryAll,Nonword_sequence,OneSentence,2.0,2.0,1.16960760399888,1.0,True,True
864,FED20220203a_3T2,2,N,5,7,39,322.110339809999,MemoryAll,Nonword_sequence,OneSentence,2.0,1.0,1.55014975500308,1.0,False,False
864,FED20220203a_3T2,2,S,5,7,40,329.111490452,MemoryAll,Susan and Julia came from the door and dragged him with them.,OneSentence,2.0,2.0,0.533825231999799,1.0,True,True
864,FED20220203a_3T2,2,S,5,7,41,336.145976034,MemoryAll,Prior to that he was associated with Long Island University in Brooklyn.,OneSentence,1.0,1.0,0.703830259000824,1.0,True,True
864,FED20220203a_3T2,2,S,5,7,42,343.113699079,MemoryAll,Then he astonished Matsuo by pushing and dragging himself until he sat.,OneSentence,1.0,1.0,1.01603498199984,1.0,True,True
864,FED20220203a_3T2,2,S,5,7,43,350.114891278001,MemoryAll,Mike snatched a pistol from the heap of scattered booty and fired.,OneSentence,1.0,2.0,0.708177678996435,1.0,False,False
864,FED20220203a_3T2,2,S,5,7,44,357.113809344999,MemoryAll,To have someday that love returned was what he had lived for.,OneSentence,2.0,1.0,1.13440758299839,1.0,False,False
864,FED20220203a_3T2,2,S,5,7,45,364.116303144998,MemoryAll,But I only thought of that in the middle of the night.,OneSentence,1.0,1.0,0.705336176000856,1.0,True,True
864,FED20220203a_3T2,2,N,5,7,46,371.117385539001,MemoryAll,Nonword_sequence,OneSentence,2.0,2.0,1.3013461149967,1.0,True,True
864,FED20220203a_3T2,2,N,5,7,47,378.118544663001,MemoryAll,Nonword_sequence,OneSentence,1.0,2.0,0.538923101001274,1.0,False,False
864,FED20220203a_3T2,2,N,5,7,48,385.119699633,MemoryAll,Nonword_sequence,OneSentence,1.0,2.0,1.11954213499848,1.0,False,False
864,FED20220203a_3T2,2,N,5,8,1,14.1177922869974,MemoryAll,Nonword_sequence,OneSentence,2.0,2.0,0.865479429001425,1.0,True,True
864,FED20220203a_3T2,2,N,5,8,2,21.1186825309996,MemoryAll,Nonword_sequence,OneSentence,1.0,1.0,0.985377518001769,1.0,True,True
864,FED20220203a_3T2,2,N,5,8,3,28.136310034999,MemoryAll,Nonword_sequence,OneSentence,1.0,1.0,0.679233935999946,1.0,True,True
864,FED20220203a_3T2,2,S,5,8,4,35.1193991319997,MemoryAll,But it was such a nice thought that he nodded his head.,OneSentence,1.0,1.0,0.64249477300109,1.0,True,True
864,FED20220203a_3T2,2,S,5,8,5,42.1548558359973,MemoryAll,I followed them in the jeep and now they did not care.,OneSentence,1.0,1.0,0.695926077001786,1.0,True,True
864,FED20220203a_3T2,2,S,5,8,6,49.1071596010006,MemoryAll,The effect on the intellectuals among his audience may well be imagined.,OneSentence,2.0,1.0,1.30080534199806,1.0,False,False
864,FED20220203a_3T2,2,S,5,8,7,56.1081631470006,MemoryAll,Rod gave her a warm pat on the shoulder before he replied.,OneSentence,2.0,2.0,0.655074232003244,1.0,True,True
864,FED20220203a_3T2,2,S,5,8,8,63.1093048170005,MemoryAll,This material fluoresces under ultraviolet light which facilitates its sampling and assessment.,OneSentence,1.0,1.0,0.904209483000159,1.0,True,True
864,FED20220203a_3T2,2,S,5,8,9,70.1594001779995,MemoryAll,He got a small fire started and put on bacon and coffee.,OneSentence,2.0,2.0,0.67531722199783,1.0,True,True
864,FED20220203a_3T2,2,N,5,8,10,77.1115125169999,MemoryAll,Nonword_sequence,OneSentence,1.0,1.0,0.669763689002139,1.0,True,True
864,FED20220203a_3T2,2,N,5,8,11,84.129002927999,MemoryAll,Nonword_sequence,OneSentence,1.0,2.0,0.618412474999786,1.0,False,False
864,FED20220203a_3T2,2,N,5,8,12,91.1137125079986,MemoryAll,Nonword_sequence,OneSentence,1.0,2.0,1.00128749599753,1.0,False,False
864,FED20220203a_3T2,2,S,5,8,13,112.149645265999,MemoryAll,They are putting strong pressure on their police departments to keep order.,OneSentence,1.0,1.0,0.868047837000631,1.0,True,True
864,FED20220203a_3T2,2,S,5,8,14,119.117291785999,MemoryAll,He turned and raced across the parade ground toward the rock house.,OneSentence,1.0,1.0,0.445676027997251,1.0,True,True
864,FED20220203a_3T2,2,S,5,8,15,126.118480073997,MemoryAll,But a somewhat more detailed analysis of this process may be illuminating.,OneSentence,1.0,1.0,1.00003662499876,1.0,True,True
864,FED20220203a_3T2,2,N,5,8,16,133.119657486001,MemoryAll,Nonword_sequence,OneSentence,2.0,1.0,0.549337749998813,1.0,False,False
864,FED20220203a_3T2,2,N,5,8,17,140.105738988997,MemoryAll,Nonword_sequence,OneSentence,2.0,2.0,0.885974495999108,1.0,True,True
864,FED20220203a_3T2,2,N,5,8,18,147.105727475999,MemoryAll,Nonword_sequence,OneSentence,1.0,1.0,0.903313230999629,1.0,True,True
864,FED20220203a_3T2,2,S,5,8,19,154.123732019998,MemoryAll,Whether he sang well or badly had nothing to do with it.,OneSentence,2.0,2.0,1.03248331299983,1.0,True,True
864,FED20220203a_3T2,2,S,5,8,20,161.108067380999,MemoryAll,Dave shrugged on his sports coat and picked up the car keys.,OneSentence,1.0,1.0,0.865140360998339,1.0,True,True
864,FED20220203a_3T2,2,S,5,8,21,168.126719591,MemoryAll,He has to cope with frustration and other emotional disturbance and anomie.,OneSentence,1.0,1.0,0.643053316001897,1.0,True,True
864,FED20220203a_3T2,2,N,5,8,22,175.110357846999,MemoryAll,Nonword_sequence,OneSentence,2.0,2.0,1.00135789399792,1.0,True,True
864,FED20220203a_3T2,2,N,5,8,23,182.111313942998,MemoryAll,Nonword_sequence,OneSentence,2.0,2.0,1.10130804100118,1.0,True,True
864,FED20220203a_3T2,2,N,5,8,24,189.112078121998,MemoryAll,Nonword_sequence,OneSentence,2.0,2.0,0.885937037000986,1.0,True,True
864,FED20220203a_3T2,2,N,5,8,25,210.115525787998,MemoryAll,Nonword_sequence,OneSentence,1.0,1.0,0.633510506999301,1.0,True,True
864,FED20220203a_3T2,2,N,5,8,26,217.116671246,MemoryAll,Nonword_sequence,OneSentence,2.0,2.0,0.630954748001386,1.0,True,True
864,FED20220203a_3T2,2,N,5,8,27,224.134975960998,MemoryAll,Nonword_sequence,OneSentence,1.0,1.0,0.628652605999378,1.0,True,True
864,FED20220203a_3T2,2,S,5,8,28,231.118927497999,MemoryAll,The orchestra was obviously on its mettle and it played most responsively.,OneSentence,1.0,1.0,0.381437669999286,1.0,True,True
864,FED20220203a_3T2,2,S,5,8,29,238.236506849,MemoryAll,Mr. Wendell and his bride will live in his Lake Forest house.,OneSentence,2.0,2.0,0.561462444999052,1.0,True,True
864,FED20220203a_3T2,2,S,5,8,30,245.105716601,MemoryAll,He caught her by an arm and helped her into the kitchen.,OneSentence,2.0,2.0,0.526506487000006,1.0,True,True
864,FED20220203a_3T2,2,N,5,8,31,252.157293271997,MemoryAll,Nonword_sequence,OneSentence,1.0,1.0,1.06946118100313,1.0,True,True
864,FED20220203a_3T2,2,N,5,8,32,259.106858597999,MemoryAll,Nonword_sequence,OneSentence,2.0,2.0,0.559147209001821,1.0,True,True
864,FED20220203a_3T2,2,N,5,8,33,266.108001131997,MemoryAll,Nonword_sequence,OneSentence,2.0,2.0,0.605259415999171,1.0,True,True
864,FED20220203a_3T2,2,S,5,8,34,273.110464261998,MemoryAll,In the center of his brilliant curls sat a small black skullcap.,OneSentence,2.0,2.0,0.543116696000652,1.0,True,True
864,FED20220203a_3T2,2,S,5,8,35,280.144370483999,MemoryAll,The social and psychological consequences of this continue to affect the area.,OneSentence,2.0,2.0,0.521222301998932,1.0,True,True
864,FED20220203a_3T2,2,S,5,8,36,287.112645839999,MemoryAll,I figured I could stand practically anything for a couple of weeks.,OneSentence,2.0,2.0,0.598103710999567,1.0,True,True
864,FED20220203a_3T2,2,S,5,8,37,308.166087114998,MemoryAll,She experienced none of the suspense of some poor stranger selling encyclopedias.,OneSentence,2.0,2.0,0.607525597999484,1.0,True,True
864,FED20220203a_3T2,2,S,5,8,38,315.119803456,MemoryAll,The clouds bulged downward and burst suddenly into a great black funnel.,OneSentence,1.0,2.0,1.01483424199978,1.0,False,False
864,FED20220203a_3T2,2,S,5,8,39,322.16674809,MemoryAll,Senator Hubert Humphrey is obviously a man with a soul and heart.,OneSentence,2.0,2.0,0.505240999998932,1.0,True,True
864,FED20220203a_3T2,2,N,5,8,40,329.118741114999,MemoryAll,Nonword_sequence,OneSentence,2.0,2.0,0.610649662998185,1.0,True,True
864,FED20220203a_3T2,2,N,5,8,41,336.137524104,MemoryAll,Nonword_sequence,OneSentence,1.0,1.0,0.711400444000901,1.0,True,True
864,FED20220203a_3T2,2,N,5,8,42,343.115857255998,MemoryAll,Nonword_sequence,OneSentence,1.0,2.0,0.635007594999479,1.0,False,False
864,FED20220203a_3T2,2,N,5,8,43,350.121587166999,MemoryAll,Nonword_sequence,OneSentence,2.0,2.0,0.620243413002754,1.0,True,True
864,FED20220203a_3T2,2,N,5,8,44,357.106933978997,MemoryAll,Nonword_sequence,OneSentence,2.0,2.0,0.541935778997868,1.0,True,True
864,FED20220203a_3T2,2,N,5,8,45,364.173890590999,MemoryAll,Nonword_sequence,OneSentence,1.0,1.0,1.4561480759985,1.0,True,True
864,FED20220203a_3T2,2,S,5,8,46,371.109429217999,MemoryAll,He went to the front door and opened it and looked in.,OneSentence,2.0,2.0,0.54432927200105,1.0,True,True
864,FED20220203a_3T2,2,S,5,8,47,378.126211218998,MemoryAll,His years of campaigning had taught him the value of water discipline.,OneSentence,1.0,1.0,0.725619419998111,1.0,True,True
864,FED20220203a_3T2,2,S,5,8,48,385.114916789,MemoryAll,Edythe settled down to become a social myth and a horrible example.,OneSentence,1.0,1.0,0.967753187000199,1.0,True,True
865,FED20220207a_3T2,1,S,3,1,1,14.1364547000012,ButtonPress,The atmosphere is that of an attractive private beach club at home.,OneSentence,,1.0,0.503918469999917,1.0,True,True
865,FED20220207a_3T2,1,S,3,1,2,20.1889002999997,ButtonPress,This is a significant advance but its importance should not be exaggerated.,OneSentence,,1.0,0.533364319999237,1.0,True,True
865,FED20220207a_3T2,1,S,3,1,3,26.2055891100026,ButtonPress,He enlisted a staff of loyal experts and of many zealous volunteers.,OneSentence,,1.0,0.50294903699978,1.0,True,True
865,FED20220207a_3T2,1,N,3,1,4,32.1728612780025,ButtonPress,Nonword_sequence,OneSentence,,1.0,0.568002405001607,1.0,True,True
865,FED20220207a_3T2,1,N,3,1,5,38.1740895800031,ButtonPress,Nonword_sequence,OneSentence,,1.0,0.469193603999884,1.0,True,True
865,FED20220207a_3T2,1,N,3,1,6,44.1748318120008,ButtonPress,Nonword_sequence,OneSentence,,1.0,0.468474274999608,1.0,True,True
865,FED20220207a_3T2,1,N,3,1,7,50.1928779850023,ButtonPress,Nonword_sequence,OneSentence,,1.0,0.434701821999624,1.0,True,True
865,FED20220207a_3T2,1,N,3,1,8,56.1763740510032,ButtonPress,Nonword_sequence,OneSentence,,1.0,0.40085838899904,1.0,True,True
865,FED20220207a_3T2,1,N,3,1,9,62.195980116001,ButtonPress,Nonword_sequence,OneSentence,,1.0,0.484691663998092,1.0,True,True
865,FED20220207a_3T2,1,S,3,1,10,68.1968263210001,ButtonPress,Copies of this letter were made avaliable to the press and public.,OneSentence,,1.0,0.467280490000121,1.0,True,True
865,FED20220207a_3T2,1,S,3,1,11,74.1972144660031,ButtonPress,Someone had moved beyond the range of the light from the window.,OneSentence,,1.0,0.437528013000701,1.0,True,True
865,FED20220207a_3T2,1,S,3,1,12,80.1808882380028,ButtonPress,In this play there were so many characters and so much detail.,OneSentence,,1.0,0.384517102000245,1.0,True,True
865,FED20220207a_3T2,1,N,3,1,13,100.217482788001,ButtonPress,Nonword_sequence,OneSentence,,1.0,0.435737911000615,1.0,True,True
865,FED20220207a_3T2,1,N,3,1,14,106.186257972,ButtonPress,Nonword_sequence,OneSentence,,1.0,0.434560633999354,1.0,True,True
865,FED20220207a_3T2,1,N,3,1,15,112.186189017,ButtonPress,Nonword_sequence,OneSentence,,1.0,0.435945889999857,1.0,True,True
865,FED20220207a_3T2,1,S,3,1,16,118.188584541,ButtonPress,We bought his records and played them in our schools and universities.,OneSentence,,1.0,0.384593586997653,1.0,True,True
865,FED20220207a_3T2,1,S,3,1,17,124.189278623002,ButtonPress,They are the most beautiful part of that little piece of nature.,OneSentence,,1.0,0.399023833000683,1.0,True,True
865,FED20220207a_3T2,1,S,3,1,18,130.189414946002,ButtonPress,They adopted a program by which Louisiana was divided into five districts.,OneSentence,,1.0,0.400023651000083,1.0,True,True
865,FED20220207a_3T2,1,N,3,1,19,136.189870118,ButtonPress,Nonword_sequence,OneSentence,,1.0,0.435898439001903,1.0,True,True
865,FED20220207a_3T2,1,N,3,1,20,142.191082516001,ButtonPress,Nonword_sequence,OneSentence,,1.0,0.484391321002477,1.0,True,True
865,FED20220207a_3T2,1,N,3,1,21,148.174790091001,ButtonPress,Nonword_sequence,OneSentence,,1.0,0.518761339997582,1.0,True,True
865,FED20220207a_3T2,1,S,3,1,22,154.177342307001,ButtonPress,Student leaders began sporadic efforts to negotiate theater integration several months ago.,OneSentence,,1.0,0.40280102899851,1.0,True,True
865,FED20220207a_3T2,1,S,3,1,23,160.178820121,ButtonPress,The exuberance on this occasion set a standard for subsequent Dartmouth gatherings.,OneSentence,,1.0,0.501175401001092,1.0,True,True
865,FED20220207a_3T2,1,S,3,1,24,166.196530473,ButtonPress,In this way you will be able to detect any obvious mistakes.,OneSentence,,1.0,0.401262858002156,1.0,True,True
865,FED20220207a_3T2,1,S,3,1,25,186.199009891003,ButtonPress,The thin man moved swiftly to the phone and dialed a number.,OneSentence,,1.0,0.434265440999297,1.0,True,True
865,FED20220207a_3T2,1,S,3,1,26,192.182569025001,ButtonPress,This procedure is much more effective than giving out a membership packet.,OneSentence,,1.0,0.369089533000079,1.0,True,True
865,FED20220207a_3T2,1,S,3,1,27,198.184855139003,ButtonPress,The windshield glass is shatterproof and plexiglas is used in the cabin.,OneSentence,,1.0,0.405938609001169,1.0,True,True
865,FED20220207a_3T2,1,N,3,1,28,204.201074635002,ButtonPress,Nonword_sequence,OneSentence,,1.0,0.407518457999686,1.0,True,True
865,FED20220207a_3T2,1,N,3,1,29,210.202105602002,ButtonPress,Nonword_sequence,OneSentence,,1.0,0.415265683001053,1.0,True,True
865,FED20220207a_3T2,1,N,3,1,30,216.187700379003,ButtonPress,Nonword_sequence,OneSentence,,1.0,0.402569231002417,1.0,True,True
865,FED20220207a_3T2,1,S,3,1,31,222.204906184001,ButtonPress,Within two weeks Warren was ringing the bell at the abbey gate.,OneSentence,,1.0,0.434370616003434,1.0,True,True
865,FED20220207a_3T2,1,S,3,1,32,228.192431861,ButtonPress,He believed in making inspiring speeches and he made a great many.,OneSentence,,1.0,0.401227383001242,1.0,True,True
865,FED20220207a_3T2,1,S,3,1,33,234.173842595002,ButtonPress,Her mother also was a person of superior mind and broad interests.,OneSentence,,1.0,0.40123364199826,1.0,True,True
865,FED20220207a_3T2,1,N,3,1,34,240.190285449,ButtonPress,Nonword_sequence,OneSentence,,1.0,0.436238138998306,1.0,True,True
865,FED20220207a_3T2,1,N,3,1,35,246.191299387003,ButtonPress,Nonword_sequence,OneSentence,,1.0,0.468569306001882,1.0,True,True
865,FED20220207a_3T2,1,N,3,1,36,252.174417376002,ButtonPress,Nonword_sequence,OneSentence,,1.0,0.402264156000456,1.0,True,True
865,FED20220207a_3T2,1,N,3,1,37,272.212203492003,ButtonPress,Nonword_sequence,OneSentence,,1.0,0.434633320997818,1.0,True,True
865,FED20220207a_3T2,1,N,3,1,38,278.196752597003,ButtonPress,Nonword_sequence,OneSentence,,1.0,0.400129040001048,1.0,True,True
865,FED20220207a_3T2,1,N,3,1,39,284.198554803002,ButtonPress,Nonword_sequence,OneSentence,,1.0,0.435332707998896,1.0,True,True
865,FED20220207a_3T2,1,S,3,1,40,290.182697043001,ButtonPress,There is a tangible feeling in the air of revulsion toward politics.,OneSentence,,1.0,0.484405831000913,1.0,True,True
865,FED20220207a_3T2,1,S,3,1,41,296.200465051003,ButtonPress,The hull was also a result of almost a decade of work.,OneSentence,,1.0,0.519214957999793,1.0,True,True
865,FED20220207a_3T2,1,S,3,1,42,302.184589837001,ButtonPress,She had arrived this morning and come straight to the English Gardens.,OneSentence,,1.0,0.401315792001697,1.0,True,True
865,FED20220207a_3T2,1,S,3,1,43,308.186322531001,ButtonPress,After that they had sat for five minutes without saying a word.,OneSentence,,1.0,0.400957247002225,1.0,True,True
865,FED20220207a_3T2,1,S,3,1,44,314.186509957002,ButtonPress,Whole families are moving and removal firms are booked for months ahead.,OneSentence,,1.0,0.451234847001615,1.0,True,True
865,FED20220207a_3T2,1,S,3,1,45,320.219980695001,ButtonPress,Then he noticed that the dry wood of the wheels had swollen.,OneSentence,,1.0,0.450942753999698,1.0,True,True
865,FED20220207a_3T2,1,N,3,1,46,326.188409299,ButtonPress,Nonword_sequence,OneSentence,,1.0,0.502776241999527,1.0,True,True
865,FED20220207a_3T2,1,N,3,1,47,332.188231203003,ButtonPress,Nonword_sequence,OneSentence,,1.0,0.468967844000872,1.0,True,True
865,FED20220207a_3T2,1,N,3,1,48,338.189618554003,ButtonPress,Nonword_sequence,OneSentence,,1.0,0.434880699001951,1.0,True,True
865,FED20220207a_3T2,1,N,3,2,1,14.1236346330006,ButtonPress,Nonword_sequence,OneSentence,,1.0,0.551038084999163,1.0,True,True
865,FED20220207a_3T2,1,N,3,2,2,20.1921035230007,ButtonPress,Nonword_sequence,OneSentence,,1.0,0.468339438997646,1.0,True,True
865,FED20220207a_3T2,1,N,3,2,3,26.1770228050009,ButtonPress,Nonword_sequence,OneSentence,,1.0,0.466616077999788,1.0,True,True
865,FED20220207a_3T2,1,S,3,2,4,32.1931400780013,ButtonPress,I wanted to help so that we could find time to play.,OneSentence,,1.0,0.502105735999066,1.0,True,True
865,FED20220207a_3T2,1,S,3,2,5,38.1956338620002,ButtonPress,He bases his approach on the belief that anything can follow anything.,OneSentence,,1.0,0.467673074999766,1.0,True,True
865,FED20220207a_3T2,1,S,3,2,6,44.1963454979996,ButtonPress,It was a simple ivory crucifix which my mother had given me.,OneSentence,,1.0,0.468870641001558,1.0,True,True
865,FED20220207a_3T2,1,S,3,2,7,50.1806202340013,ButtonPress,The Mayor is finding it awkward to campaign against his own record.,OneSentence,,1.0,0.466669721998187,1.0,True,True
865,FED20220207a_3T2,1,S,3,2,8,56.1971643220022,ButtonPress,Scotty accepted the decision with indifference and did not enter the arguments.,OneSentence,,1.0,0.50125503000163,1.0,True,True
865,FED20220207a_3T2,1,S,3,2,9,62.182334166002,ButtonPress,When he gets the answers to his questions he will be discouraged.,OneSentence,,1.0,0.437131696999131,1.0,True,True
865,FED20220207a_3T2,1,N,3,2,10,68.1836051460014,ButtonPress,Nonword_sequence,OneSentence,,1.0,0.534638266999536,1.0,True,True
865,FED20220207a_3T2,1,N,3,2,11,74.1847065120019,ButtonPress,Nonword_sequence,OneSentence,,1.0,0.467869410000276,1.0,True,True
865,FED20220207a_3T2,1,N,3,2,12,80.1858868929994,ButtonPress,Nonword_sequence,OneSentence,,1.0,0.402591869002208,1.0,True,True
865,FED20220207a_3T2,1,S,3,2,13,100.204903843001,ButtonPress,We made it back to the Harbor in less than four minutes.,OneSentence,,1.0,0.39913722199708,1.0,True,True
865,FED20220207a_3T2,1,S,3,2,14,106.205544566001,ButtonPress,The continuing modernization of these forces is a costly but necessary process.,OneSentence,,1.0,0.517757968998922,1.0,True,True
865,FED20220207a_3T2,1,S,3,2,15,112.189237197003,ButtonPress,And this was before he began to play his startlingly beautiful jazz.,OneSentence,,1.0,0.550649150001846,1.0,True,True
865,FED20220207a_3T2,1,N,3,2,16,118.191562175001,ButtonPress,Nonword_sequence,OneSentence,,1.0,0.518474556000001,1.0,True,True
865,FED20220207a_3T2,1,N,3,2,17,124.176444189001,ButtonPress,Nonword_sequence,OneSentence,,1.0,0.467875936999917,1.0,True,True
865,FED20220207a_3T2,1,N,3,2,18,130.175871691001,ButtonPress,Nonword_sequence,OneSentence,,1.0,0.501273299996683,1.0,True,True
865,FED20220207a_3T2,1,S,3,2,19,136.176807178999,ButtonPress,The others likewise had hidden themselves in the grass and the brush.,OneSentence,,1.0,0.44777539200004,1.0,True,True
865,FED20220207a_3T2,1,S,3,2,20,142.177788449,ButtonPress,No one suggested that the ethical effects of the art were irrelevant.,OneSentence,,1.0,0.383314128001075,1.0,True,True
865,FED20220207a_3T2,1,S,3,2,21,148.180023536002,ButtonPress,He wanted to go back to Harvard for another year of playwriting.,OneSentence,,1.0,0.402604546998191,1.0,True,True
865,FED20220207a_3T2,1,N,3,2,22,154.179726917002,ButtonPress,Nonword_sequence,OneSentence,,1.0,0.469781895000779,1.0,True,True
865,FED20220207a_3T2,1,N,3,2,23,160.181101044,ButtonPress,Nonword_sequence,OneSentence,,1.0,0.451236337998125,1.0,True,True
865,FED20220207a_3T2,1,N,3,2,24,166.181741556,ButtonPress,Nonword_sequence,OneSentence,,1.0,0.468287526000495,1.0,True,True
865,FED20220207a_3T2,1,N,3,2,25,186.220041021003,ButtonPress,Nonword_sequence,OneSentence,,1.0,0.452089491998777,1.0,True,True
865,FED20220207a_3T2,1,N,3,2,26,192.186728346001,ButtonPress,Nonword_sequence,OneSentence,,1.0,0.435635797999566,1.0,True,True
865,FED20220207a_3T2,1,N,3,2,27,198.188367814,ButtonPress,Nonword_sequence,OneSentence,,1.0,0.435638211998594,1.0,True,True
865,FED20220207a_3T2,1,S,3,2,28,204.204536420002,ButtonPress,They are trying to demonstrate some different ways of teaching and learning.,OneSentence,,1.0,0.433686246000434,1.0,True,True
865,FED20220207a_3T2,1,S,3,2,29,210.206436717002,ButtonPress,She blew her nose on a tissue and opened the coke bottle.,OneSentence,,1.0,0.352268228001776,1.0,True,True
865,FED20220207a_3T2,1,S,3,2,30,216.189856178,ButtonPress,I crossed the beautifully furnished living room to the pale yellow phone.,OneSentence,,1.0,0.402250995997747,1.0,True,True
865,FED20220207a_3T2,1,N,3,2,31,222.174132297001,ButtonPress,Nonword_sequence,OneSentence,,1.0,0.384582968999894,1.0,True,True
865,FED20220207a_3T2,1,N,3,2,32,228.176614623,ButtonPress,Nonword_sequence,OneSentence,,1.0,0.368498669002292,1.0,True,True
865,FED20220207a_3T2,1,N,3,2,33,234.192826628001,ButtonPress,Nonword_sequence,OneSentence,,1.0,0.48554593299923,1.0,True,True
865,FED20220207a_3T2,1,S,3,2,34,240.177953126,ButtonPress,Most of us would be willing to admit that forgiveness comes hard.,OneSentence,,1.0,0.351498695999908,1.0,True,True
865,FED20220207a_3T2,1,S,3,2,35,246.178880935,ButtonPress,Most school systems today maintain a system of cumulative records of pupils.,OneSentence,,1.0,0.399611928998638,1.0,True,True
865,FED20220207a_3T2,1,S,3,2,36,252.195662657003,ButtonPress,Good radio drama has its own special demands that badly need reinvigoration.,OneSentence,,1.0,0.0012261140000191,1.0,True,True
865,FED20220207a_3T2,1,S,3,2,37,272.217427293002,ButtonPress,The problem of solidarity and morale again involves the concept of values.,OneSentence,,1.0,0.502981854999234,1.0,True,True
865,FED20220207a_3T2,1,S,3,2,38,278.190437516001,ButtonPress,It appeared that the theory could be saved in one way only.,OneSentence,,1.0,0.401256361001288,1.0,True,True
865,FED20220207a_3T2,1,S,3,2,39,284.200320175001,ButtonPress,The red glow from the cove had died out of the sky.,OneSentence,,1.0,0.469294725000509,1.0,True,True
865,FED20220207a_3T2,1,N,3,2,40,290.204517414,ButtonPress,Nonword_sequence,OneSentence,,1.0,0.409176938999735,1.0,True,True
865,FED20220207a_3T2,1,N,3,2,41,296.186754062001,ButtonPress,Nonword_sequence,OneSentence,,1.0,1.00213878000068,1.0,True,True
865,FED20220207a_3T2,1,N,3,2,42,302.207572239,ButtonPress,Nonword_sequence,OneSentence,,1.0,0.400032269000803,1.0,True,True
865,FED20220207a_3T2,1,N,3,2,43,308.188124797001,ButtonPress,Nonword_sequence,OneSentence,,1.0,0.469166678001784,1.0,True,True
865,FED20220207a_3T2,1,N,3,2,44,314.173779146,ButtonPress,Nonword_sequence,OneSentence,,1.0,0.43450672399922,1.0,True,True
865,FED20220207a_3T2,1,N,3,2,45,320.174738505,ButtonPress,Nonword_sequence,OneSentence,,1.0,0.533123499000794,1.0,True,True
865,FED20220207a_3T2,1,S,3,2,46,326.191303615,ButtonPress,No client would ever think of asking him to do such things.,OneSentence,,1.0,0.466772237999976,1.0,True,True
865,FED20220207a_3T2,1,S,3,2,47,332.192241609002,ButtonPress,New ideas for improving nutrition came with the study of soil treatment.,OneSentence,,1.0,0.437460364002618,1.0,True,True
865,FED20220207a_3T2,1,S,3,2,48,338.211104993999,ButtonPress,Their duties include evaluation of the information collected and preparation of recommendations.,OneSentence,,1.0,0.518411707998894,1.0,True,True
865,FED20220207a_3T2,6,S,2,3,1,16.7345427049986,ButtonPress,"No, during moments of intense crisis the responsibility of political leaders is overwhelming.",TwoSentences,,1.0,0.570354280000174,1.0,True,True
865,FED20220207a_3T2,6,S,2,3,2,25.7359154320002,ButtonPress,"Yes, he beckoned to her from the door and she slipped quietly outside.",TwoSentences,,1.0,0.51787916000103,1.0,True,True
865,FED20220207a_3T2,6,S,2,3,3,34.737380904,ButtonPress,"No, part of the family should be sleeping while the rest is awake.",TwoSentences,,1.0,0.436168587999418,1.0,True,True
865,FED20220207a_3T2,6,N,2,3,4,41.1038705249994,MemoryAll,Nonword_sequence,OneSentence,2.0,,,0.0,False,
865,FED20220207a_3T2,6,N,2,3,5,50.1326402099985,MemoryAll,Nonword_sequence,OneSentence,1.0,1.0,0.572801662001439,1.0,True,True
865,FED20220207a_3T2,6,N,2,3,6,59.1097989160007,MemoryAll,Nonword_sequence,OneSentence,2.0,,,0.0,False,
865,FED20220207a_3T2,6,N,2,3,7,68.1152614189996,MemoryAll,Nonword_sequence,OneSentence,2.0,,,0.0,False,
865,FED20220207a_3T2,6,N,2,3,8,77.1152824890014,MemoryAll,Nonword_sequence,OneSentence,1.0,1.0,0.880476704001921,1.0,True,True
865,FED20220207a_3T2,6,N,2,3,9,86.1120489009991,MemoryAll,Nonword_sequence,OneSentence,1.0,1.0,0.810999230998277,1.0,True,True
865,FED20220207a_3T2,6,S,2,3,10,97.7309457740012,ButtonPress,"No, it became so monotonous as to seem a part of the quietness.",TwoSentences,,1.0,0.584655439000926,1.0,True,True
865,FED20220207a_3T2,6,S,2,3,11,106.734010819,ButtonPress,"No, there is no reason to feel uneasy or disturbed about these people.",TwoSentences,,1.0,0.43744708200029,1.0,True,True
865,FED20220207a_3T2,6,S,2,3,12,115.734839594999,ButtonPress,"Yes, shipments of arms from Western countries could easily be seized as contraband.",TwoSentences,,1.0,0.549065469000197,1.0,True,True
865,FED20220207a_3T2,6,N,2,3,13,136.122163550001,MemoryAll,Nonword_sequence,OneSentence,2.0,,,0.0,False,
865,FED20220207a_3T2,6,N,2,3,14,145.105856742,MemoryAll,Nonword_sequence,OneSentence,1.0,1.0,0.623768500998267,1.0,True,True
865,FED20220207a_3T2,6,N,2,3,15,154.106809861001,MemoryAll,Nonword_sequence,OneSentence,2.0,,,0.0,False,
865,FED20220207a_3T2,6,S,2,3,16,165.727160643,ButtonPress,"No, Linda quietly got a broom and started to sweep up the sugar.",TwoSentences,,1.0,0.734639715003141,1.0,True,True
865,FED20220207a_3T2,6,S,2,3,17,174.728169447,ButtonPress,"No, we believe this will substantially broaden the potential market for the equipment.",TwoSentences,,1.0,0.484660403999442,1.0,True,True
865,FED20220207a_3T2,6,S,2,3,18,183.729983117999,ButtonPress,"Yes, I introduced my friend Larry to Pops and we made ourselves comfortable.",TwoSentences,,1.0,0.583341301000473,1.0,True,True
865,FED20220207a_3T2,6,N,2,3,19,190.114257075002,MemoryAll,Nonword_sequence,OneSentence,2.0,,,0.0,False,
865,FED20220207a_3T2,6,N,2,3,20,199.115723699,MemoryAll,Nonword_sequence,OneSentence,2.0,,,0.0,False,
865,FED20220207a_3T2,6,N,2,3,21,208.150558056001,MemoryAll,Nonword_sequence,OneSentence,2.0,,,0.0,False,
865,FED20220207a_3T2,6,S,2,3,22,219.735635073001,ButtonPress,"No, this was done with full knowledge that there would be no epidemic.",TwoSentences,,1.0,0.435797799000284,1.0,True,True
865,FED20220207a_3T2,6,S,2,3,23,228.735704466999,ButtonPress,"No, the only love I was giving him was of the pure kind.",TwoSentences,,1.0,0.533861799001897,1.0,True,True
865,FED20220207a_3T2,6,S,2,3,24,237.73713387,ButtonPress,"Yes, by this time large numbers of the audience had left the hall.",TwoSentences,,1.0,0.40124075499989,1.0,True,True
865,FED20220207a_3T2,6,S,2,3,25,260.725787700001,ButtonPress,"Yes, Brannon timed it so that they rode in an hour after nightfall.",TwoSentences,,1.0,0.466460103998543,1.0,True,True
865,FED20220207a_3T2,6,S,2,3,26,269.726784400998,ButtonPress,"Yes, Kate went back and reminded the kitchen women of the supper preparations.",TwoSentences,,1.0,0.467622894000669,1.0,True,True
865,FED20220207a_3T2,6,S,2,3,27,278.727501459001,ButtonPress,"No, on the way he stopped at the desk to receive his mail.",TwoSentences,,1.0,0.467117628999404,1.0,True,True
865,FED20220207a_3T2,6,N,2,3,28,285.112700132999,MemoryAll,Nonword_sequence,OneSentence,2.0,,,0.0,False,
865,FED20220207a_3T2,6,N,2,3,29,294.113900381999,MemoryAll,Nonword_sequence,OneSentence,2.0,,,0.0,False,
865,FED20220207a_3T2,6,N,2,3,30,303.114446299001,MemoryAll,Nonword_sequence,OneSentence,1.0,,,0.0,False,
865,FED20220207a_3T2,6,S,2,3,31,314.733039834999,ButtonPress,"No, they passed ranches that were framed dark gray against the black hills.",TwoSentences,,1.0,0.401940990002913,1.0,True,True
865,FED20220207a_3T2,6,S,2,3,32,323.734465561,ButtonPress,"No, white pepper is the ground seed of the common black pepper fruit.",TwoSentences,,1.0,0.47144727200066,1.0,True,True
865,FED20220207a_3T2,6,S,2,3,33,332.735970659,ButtonPress,"Yes, she was found the day after at the bottom of the cliff.",TwoSentences,,1.0,0.399841892998666,1.0,True,True
865,FED20220207a_3T2,6,N,2,3,34,339.120303553002,MemoryAll,Nonword_sequence,OneSentence,1.0,1.0,0.512401118998241,1.0,True,True
865,FED20220207a_3T2,6,N,2,3,35,348.121813902999,MemoryAll,Nonword_sequence,OneSentence,1.0,1.0,0.756962462000956,1.0,True,True
865,FED20220207a_3T2,6,N,2,3,36,357.107377729,MemoryAll,Nonword_sequence,OneSentence,1.0,1.0,0.708665139998629,1.0,True,True
865,FED20220207a_3T2,6,N,2,3,37,380.127010746,MemoryAll,Nonword_sequence,OneSentence,1.0,1.0,1.24487749199761,1.0,True,True
865,FED20220207a_3T2,6,N,2,3,38,389.111844185001,MemoryAll,Nonword_sequence,OneSentence,2.0,,,0.0,False,
865,FED20220207a_3T2,6,N,2,3,39,398.113246387999,MemoryAll,Nonword_sequence,OneSentence,1.0,1.0,0.933010191998619,1.0,True,True
865,FED20220207a_3T2,6,S,2,3,40,409.733332573,ButtonPress,"Yes, I had felt the draft they were making while mounting the stairs.",TwoSentences,,1.0,0.552526051000314,1.0,True,True
865,FED20220207a_3T2,6,S,2,3,41,418.734458944,ButtonPress,"Yes, I turned and watched him stride down the center of the road.",TwoSentences,,1.0,0.499766328000987,1.0,True,True
865,FED20220207a_3T2,6,S,2,3,42,427.734647799,ButtonPress,"No, she picked up the baby and nuzzled her fat warm little neck.",TwoSentences,,1.0,0.467695135997928,1.0,True,True
865,FED20220207a_3T2,6,S,2,3,43,436.737791660002,ButtonPress,"No, visitors are welcome to come see what these dedicated mothers can do.",TwoSentences,,1.0,0.468421333000151,1.0,True,True
865,FED20220207a_3T2,6,S,2,3,44,445.738577251999,ButtonPress,"Yes, the girl kneeled by her husband with one arm at his back.",TwoSentences,,1.0,0.40278427299927,1.0,True,True
865,FED20220207a_3T2,6,S,2,3,45,454.723560236998,ButtonPress,"Yes, each of those tickets was of great value to its rightful recipient.",TwoSentences,,1.0,0.468915839999681,1.0,True,True
865,FED20220207a_3T2,6,N,2,3,46,461.108181428001,MemoryAll,Nonword_sequence,OneSentence,2.0,,,0.0,False,
865,FED20220207a_3T2,6,N,2,3,47,470.109397624001,MemoryAll,Nonword_sequence,OneSentence,1.0,,,0.0,False,
865,FED20220207a_3T2,6,N,2,3,48,479.110449977001,MemoryAll,Nonword_sequence,OneSentence,1.0,1.0,0.611932080002589,1.0,True,True
865,FED20220207a_3T2,6,N,2,4,1,14.1058810200011,MemoryAll,Nonword_sequence,OneSentence,1.0,1.0,1.03814515499835,1.0,True,True
865,FED20220207a_3T2,6,N,2,4,2,23.1062145079995,MemoryAll,Nonword_sequence,OneSentence,2.0,2.0,0.98522124900046,1.0,True,True
865,FED20220207a_3T2,6,N,2,4,3,32.1099579699985,MemoryAll,Nonword_sequence,OneSentence,1.0,1.0,0.876738066002872,1.0,True,True
865,FED20220207a_3T2,6,S,2,4,4,43.727910278998,ButtonPress,"No, let us speculate a little on the maximum size of the anaconda.",TwoSentences,,1.0,0.435911403001228,1.0,True,True
865,FED20220207a_3T2,6,S,2,4,5,52.7297685929989,ButtonPress,"No, it made no difference that most evidence points to an opposite conclusion.",TwoSentences,,1.0,0.467598788996838,1.0,True,True
865,FED20220207a_3T2,6,S,2,4,6,61.7309945859997,ButtonPress,"Yes, questions came to me from all sides about my world citizenship activities.",TwoSentences,,1.0,0.433227171997714,1.0,True,True
865,FED20220207a_3T2,6,S,2,4,7,70.7320853860001,ButtonPress,"No, one night last month Clayton had tricked them in the poker game.",TwoSentences,,1.0,0.566324135998002,1.0,True,True
865,FED20220207a_3T2,6,S,2,4,8,79.7340043939985,ButtonPress,"No, I want to create the impression of a compound full of children.",TwoSentences,,1.0,0.400870206998661,1.0,True,True
865,FED20220207a_3T2,6,S,2,4,9,88.7355307469988,ButtonPress,"No, he jumped up and turned around to see the metal door closing.",TwoSentences,,1.0,0.436173002002761,1.0,True,True
865,FED20220207a_3T2,6,N,2,4,10,95.1182196570007,MemoryAll,Nonword_sequence,OneSentence,1.0,1.0,0.848979886999587,1.0,True,True
865,FED20220207a_3T2,6,N,2,4,11,104.119701844,MemoryAll,Nonword_sequence,OneSentence,2.0,2.0,0.704027767002117,1.0,True,True
865,FED20220207a_3T2,6,N,2,4,12,113.121141956999,MemoryAll,Nonword_sequence,OneSentence,1.0,1.0,0.914467825001338,1.0,True,True
865,FED20220207a_3T2,6,S,2,4,13,138.726725703,ButtonPress,"No, there was little chance anyone would enter this shaft during the winter.",TwoSentences,,1.0,0.63256167599684,1.0,True,True
865,FED20220207a_3T2,6,S,2,4,14,147.727694177,ButtonPress,"Yes, Mike caught the ball just as the catcher slid into the bag.",TwoSentences,,1.0,0.501474852000683,1.0,True,True
865,FED20220207a_3T2,6,S,2,4,15,156.729682265999,ButtonPress,"Yes, usually there are more factors to good site planning than first impressions.",TwoSentences,,1.0,0.434477711001819,1.0,True,True
865,FED20220207a_3T2,6,N,2,4,16,163.131030545999,MemoryAll,Nonword_sequence,OneSentence,1.0,1.0,0.912573205998342,1.0,True,True
865,FED20220207a_3T2,6,N,2,4,17,172.114139937999,MemoryAll,Nonword_sequence,OneSentence,1.0,2.0,1.1430541310001,1.0,False,False
865,FED20220207a_3T2,6,N,2,4,18,181.115645464,MemoryAll,Nonword_sequence,OneSentence,2.0,2.0,1.2775599969973,1.0,True,True
865,FED20220207a_3T2,6,S,2,4,19,192.734161750999,ButtonPress,"No, wide windows with many small leaded panes swept across the upper stories.",TwoSentences,,1.0,0.517801083999075,1.0,True,True
865,FED20220207a_3T2,6,S,2,4,20,201.735631572999,ButtonPress,"Yes, body heat in the close quarters will help keep up the temperature.",TwoSentences,,1.0,0.434441321001941,1.0,True,True
865,FED20220207a_3T2,6,S,2,4,21,210.738546035998,ButtonPress,"No, historians have had two reasons for persisting so long in their investigations.",TwoSentences,,1.0,0.483310277999408,1.0,True,True
865,FED20220207a_3T2,6,N,2,4,22,217.105942360999,MemoryAll,Nonword_sequence,OneSentence,2.0,2.0,0.884566937998898,1.0,True,True
865,FED20220207a_3T2,6,N,2,4,23,226.106992477999,MemoryAll,Nonword_sequence,OneSentence,2.0,2.0,1.33327200399799,1.0,True,True
865,FED20220207a_3T2,6,N,2,4,24,235.110016107999,MemoryAll,Nonword_sequence,OneSentence,2.0,2.0,1.60320877599952,1.0,True,True
865,FED20220207a_3T2,6,N,2,4,25,258.178158269999,MemoryAll,Nonword_sequence,OneSentence,2.0,2.0,0.846359094000945,1.0,True,True
865,FED20220207a_3T2,6,N,2,4,26,267.112898436,MemoryAll,Nonword_sequence,OneSentence,2.0,2.0,1.56485400299789,1.0,True,True
865,FED20220207a_3T2,6,N,2,4,27,276.182198961,MemoryAll,Nonword_sequence,OneSentence,1.0,1.0,0.806495524000638,1.0,True,True
865,FED20220207a_3T2,6,S,2,4,28,287.734052905998,ButtonPress,"No, many of them have drifted into the cities and towns and seaports.",TwoSentences,,1.0,0.457982118998189,1.0,True,True
865,FED20220207a_3T2,6,S,2,4,29,296.733840041998,ButtonPress,"Yes, her glance swung past the trailer where the two drivers were standing.",TwoSentences,,1.0,0.483363879000535,1.0,True,True
865,FED20220207a_3T2,6,S,2,4,30,305.736909389998,ButtonPress,"Yes, it was like a long thin line drawn through a pink circle.",TwoSentences,,1.0,0.449383773000591,1.0,True,True
865,FED20220207a_3T2,6,N,2,4,31,312.121083049999,MemoryAll,Nonword_sequence,OneSentence,1.0,2.0,1.31760429100177,1.0,False,False
865,FED20220207a_3T2,6,N,2,4,32,321.106064236999,MemoryAll,Nonword_sequence,OneSentence,1.0,1.0,0.960381324999616,1.0,True,True
865,FED20220207a_3T2,6,N,2,4,33,330.107624397999,MemoryAll,Nonword_sequence,OneSentence,1.0,1.0,1.06254064599852,1.0,True,True
865,FED20220207a_3T2,6,S,2,4,34,341.726641525998,ButtonPress,"No, the first Saturday in each month is set aside for new recordings.",TwoSentences,,1.0,0.471014303999254,1.0,True,True
865,FED20220207a_3T2,6,S,2,4,35,350.72733758,ButtonPress,"Yes, he knelt down at his bed as long as he could kneel.",TwoSentences,,1.0,0.5025139879981,1.0,True,True
865,FED20220207a_3T2,6,S,2,4,36,359.729324881999,ButtonPress,"No, Alfred walked past him without a word and got into the car.",TwoSentences,,1.0,0.433605540001736,1.0,True,True
865,FED20220207a_3T2,6,S,2,4,37,382.733290492,ButtonPress,"Yes, the only exception to this is certain bees that have become parasites.",TwoSentences,,1.0,0.552366091000295,1.0,True,True
865,FED20220207a_3T2,6,S,2,4,38,391.734374285999,ButtonPress,"Yes, it was a relief to shift in his mind to technical problems.",TwoSentences,,1.0,0.752795845997753,1.0,True,True
865,FED20220207a_3T2,6,S,2,4,39,400.734731265999,ButtonPress,"Yes, he was readying a batch of sourdough biscuits for the Dutch oven.",TwoSentences,,1.0,0.436631230000785,1.0,True,True
865,FED20220207a_3T2,6,N,2,4,40,407.119106416998,MemoryAll,Nonword_sequence,OneSentence,1.0,1.0,0.642575401001523,1.0,True,True
865,FED20220207a_3T2,6,N,2,4,41,416.120618739998,MemoryAll,Nonword_sequence,OneSentence,2.0,2.0,0.759388159996888,1.0,True,True
865,FED20220207a_3T2,6,N,2,4,42,425.105791663998,MemoryAll,Nonword_sequence,OneSentence,2.0,1.0,0.744920880999416,1.0,False,False
865,FED20220207a_3T2,6,N,2,4,43,434.108610987001,MemoryAll,Nonword_sequence,OneSentence,2.0,2.0,1.06340332299806,1.0,True,True
865,FED20220207a_3T2,6,N,2,4,44,443.109568772001,MemoryAll,Nonword_sequence,OneSentence,1.0,1.0,0.982759025999258,1.0,True,True
865,FED20220207a_3T2,6,N,2,4,45,452.110898655999,MemoryAll,Nonword_sequence,OneSentence,2.0,2.0,1.03887832699911,1.0,True,True
865,FED20220207a_3T2,6,S,2,4,46,463.729611874998,ButtonPress,"Yes, I could not cling to my past nor did I wish to.",TwoSentences,,1.0,0.469410937999783,1.0,True,True
865,FED20220207a_3T2,6,S,2,4,47,472.729791244001,ButtonPress,"Yes, I was grateful for their insight into my need for this experience.",TwoSentences,,1.0,0.379353563002951,1.0,True,True
865,FED20220207a_3T2,6,S,2,4,48,481.731282089,ButtonPress,"No, he sensed rather than heard the gasp that swept across the audience.",TwoSentences,,1.0,0.405953905999922,1.0,True,True
865,FED20220207a_3T2,4,S,4,5,1,14.1197501530005,ComprehensionQ,By the time he had smoked three cigarettes he had calmed down.,TwoSentences,1.0,1.0,2.11671269300132,1.0,True,True
865,FED20220207a_3T2,4,S,4,5,2,22.104470418999,ComprehensionQ,I took the pail and shovel and went out on the porch.,TwoSentences,2.0,2.0,2.5022610140004,1.0,True,True
865,FED20220207a_3T2,4,S,4,5,3,30.1218245669988,ComprehensionQ,I think you are being unfair to take these things up now.,TwoSentences,2.0,2.0,2.98328488500192,1.0,True,True
865,FED20220207a_3T2,4,N,4,5,4,38.1070439289979,MemoryAll,Nonword_sequence,OneSentence,2.0,2.0,0.860940515001857,1.0,True,True
865,FED20220207a_3T2,4,N,4,5,5,46.1092824919979,MemoryAll,Nonword_sequence,OneSentence,2.0,2.0,0.841756640002131,1.0,True,True
865,FED20220207a_3T2,4,N,4,5,6,54.1085463989984,MemoryAll,Nonword_sequence,OneSentence,2.0,2.0,1.02467147199786,1.0,True,True
865,FED20220207a_3T2,4,N,4,5,7,62.1116353859979,MemoryAll,Nonword_sequence,OneSentence,1.0,2.0,1.00330523700177,1.0,False,False
865,FED20220207a_3T2,4,N,4,5,8,70.1127009669981,MemoryAll,Nonword_sequence,OneSentence,1.0,1.0,0.811445778002962,1.0,True,True
865,FED20220207a_3T2,4,N,4,5,9,78.1138053430004,MemoryAll,Nonword_sequence,OneSentence,1.0,1.0,0.8069974789978,1.0,True,True
865,FED20220207a_3T2,4,S,4,5,10,86.1315754909992,ComprehensionQ,The purchasers rejected the order in two letters written in vigorous terms.,TwoSentences,2.0,2.0,2.18432507000034,1.0,True,True
865,FED20220207a_3T2,4,S,4,5,11,94.1155206109979,ComprehensionQ,Better show it to Fiona and see if he had omitted anything.,TwoSentences,1.0,2.0,2.98894257799839,1.0,False,False
865,FED20220207a_3T2,4,S,4,5,12,102.118591258997,ComprehensionQ,Her face seemed to float in an implausibly bright shaft of sunlight.,TwoSentences,2.0,2.0,1.3580695060009,1.0,True,True
865,FED20220207a_3T2,4,N,4,5,13,124.120451183,MemoryAll,Nonword_sequence,OneSentence,2.0,2.0,0.935787643000367,1.0,True,True
865,FED20220207a_3T2,4,N,4,5,14,132.105027170001,MemoryAll,Nonword_sequence,OneSentence,1.0,1.0,1.00855002599928,1.0,True,True
865,FED20220207a_3T2,4,N,4,5,15,140.106970416,MemoryAll,Nonword_sequence,OneSentence,1.0,1.0,0.621050076999381,1.0,True,True
865,FED20220207a_3T2,4,S,4,5,16,148.108087397999,ComprehensionQ,Some people can carve almost anything out of a piece of wood.,TwoSentences,2.0,2.0,1.82250895199832,1.0,True,True
865,FED20220207a_3T2,4,S,4,5,17,156.146236500997,ComprehensionQ,Mrs. Oliver is mother of five children and wife of a machinist.,TwoSentences,1.0,1.0,1.40663795100045,1.0,True,True
865,FED20220207a_3T2,4,S,4,5,18,164.111512117997,ComprehensionQ,The trial had packed the large courtroom for more than a week.,TwoSentences,2.0,2.0,1.88763070999994,1.0,True,True
865,FED20220207a_3T2,4,N,4,5,19,172.112949464998,MemoryAll,Nonword_sequence,OneSentence,2.0,2.0,1.1993842189986,1.0,True,True
865,FED20220207a_3T2,4,N,4,5,20,180.166986917,MemoryAll,Nonword_sequence,OneSentence,2.0,2.0,0.807796107001195,1.0,True,True
865,FED20220207a_3T2,4,N,4,5,21,188.114160978999,MemoryAll,Nonword_sequence,OneSentence,2.0,2.0,0.956404147997091,1.0,True,True
865,FED20220207a_3T2,4,S,4,5,22,196.115456367999,ComprehensionQ,Benson grinned and flipped a rock with his thumb like a marble.,TwoSentences,2.0,2.0,1.56568355800118,1.0,True,True
865,FED20220207a_3T2,4,S,4,5,23,204.11709942,ComprehensionQ,War is the result of mistrust and lack of understanding between people.,TwoSentences,2.0,,,0.0,False,
865,FED20220207a_3T2,4,S,4,5,24,212.201405354997,ComprehensionQ,He spent long hours before the TV spitting out promises of revenge.,TwoSentences,2.0,2.0,1.2240340740027,1.0,True,True
865,FED20220207a_3T2,4,S,4,5,25,234.154635219998,ComprehensionQ,Anne picked up the towel she was hemming for the hospital guild.,TwoSentences,1.0,1.0,1.83602923400031,1.0,True,True
865,FED20220207a_3T2,4,S,4,5,26,242.173035828,ComprehensionQ,There was something maimed and crazy about its motion that disturbed them.,TwoSentences,2.0,2.0,1.49344231400028,1.0,True,True
865,FED20220207a_3T2,4,S,4,5,27,250.106424299,ComprehensionQ,Somewhat similar investigations have been made by medical officers in other areas.,TwoSentences,1.0,1.0,2.85363914499976,1.0,True,True
865,FED20220207a_3T2,4,N,4,5,28,258.110581436998,MemoryAll,Nonword_sequence,OneSentence,1.0,1.0,0.931251562997204,1.0,True,True
865,FED20220207a_3T2,4,N,4,5,29,266.209031275001,MemoryAll,Nonword_sequence,OneSentence,2.0,2.0,0.884186729999783,1.0,True,True
865,FED20220207a_3T2,4,N,4,5,30,274.112747716001,MemoryAll,Nonword_sequence,OneSentence,2.0,2.0,1.518733582001,1.0,True,True
865,FED20220207a_3T2,4,S,4,5,31,282.146009227999,ComprehensionQ,Francesca and Herbert were among the few people we knew in Catalonia.,TwoSentences,2.0,2.0,1.63986072400075,1.0,True,True
865,FED20220207a_3T2,4,S,4,5,32,290.146924509998,ComprehensionQ,Whether or not Wally lost his job was no concern of mine.,TwoSentences,1.0,1.0,1.33780092199959,1.0,True,True
865,FED20220207a_3T2,4,S,4,5,33,298.148989611,ComprehensionQ,Parents are often concerned that orthodontic appliances may cause teeth to decay.,TwoSentences,1.0,1.0,2.54151813200224,1.0,True,True
865,FED20220207a_3T2,4,N,4,5,34,306.116414734999,MemoryAll,Nonword_sequence,OneSentence,1.0,2.0,1.66229311499774,1.0,False,False
865,FED20220207a_3T2,4,N,4,5,35,314.118353782,MemoryAll,Nonword_sequence,OneSentence,1.0,2.0,1.45142306900016,1.0,False,False
865,FED20220207a_3T2,4,N,4,5,36,322.118110030999,MemoryAll,Nonword_sequence,OneSentence,2.0,2.0,0.871827611998015,1.0,True,True
865,FED20220207a_3T2,4,N,4,5,37,344.189628201999,MemoryAll,Nonword_sequence,OneSentence,1.0,1.0,0.820906935001403,1.0,True,True
865,FED20220207a_3T2,4,N,4,5,38,352.108116263,MemoryAll,Nonword_sequence,OneSentence,1.0,1.0,0.707484663998912,1.0,True,True
865,FED20220207a_3T2,4,N,4,5,39,360.110529212998,MemoryAll,Nonword_sequence,OneSentence,2.0,2.0,0.940967119000561,1.0,True,True
865,FED20220207a_3T2,4,S,4,5,40,368.178703465001,ComprehensionQ,I asked about the battle between life and death in his plays.,TwoSentences,1.0,1.0,2.0379195179994,1.0,True,True
865,FED20220207a_3T2,4,S,4,5,41,376.112314395999,ComprehensionQ,Deans can form an important bridge between the president and the faculty.,TwoSentences,1.0,1.0,2.15124280899909,1.0,True,True
865,FED20220207a_3T2,4,S,4,5,42,384.113520862,ComprehensionQ,Two sharply contrasting places designed for public enjoyment are now on display.,TwoSentences,1.0,,,0.0,False,
865,FED20220207a_3T2,4,S,4,5,43,392.180856288,ComprehensionQ,For just an instant he thought of appealing to them for help.,TwoSentences,1.0,1.0,1.38116290700054,1.0,True,True
865,FED20220207a_3T2,4,S,4,5,44,400.165440356999,ComprehensionQ,Pictures can be taken in the public areas and when on tours.,TwoSentences,1.0,1.0,2.0976450019989,1.0,True,True
865,FED20220207a_3T2,4,S,4,5,45,408.116604768999,ComprehensionQ,This expansion has been going on for an estimated eight billion years.,TwoSentences,2.0,2.0,2.78677136600163,1.0,True,True
865,FED20220207a_3T2,4,N,4,5,46,416.119228236999,MemoryAll,Nonword_sequence,OneSentence,2.0,2.0,1.70024330900196,1.0,True,True
865,FED20220207a_3T2,4,N,4,5,47,424.135527774997,MemoryAll,Nonword_sequence,OneSentence,1.0,1.0,0.64923737099889,1.0,True,True
865,FED20220207a_3T2,4,N,4,5,48,432.103269952,MemoryAll,Nonword_sequence,OneSentence,1.0,1.0,1.01297484300085,1.0,True,True
865,FED20220207a_3T2,4,N,4,6,1,14.1173084599977,MemoryAll,Nonword_sequence,OneSentence,1.0,1.0,0.81171286800236,1.0,True,True
865,FED20220207a_3T2,4,N,4,6,2,22.1199660999991,MemoryAll,Nonword_sequence,OneSentence,2.0,2.0,0.883185765000235,1.0,True,True
865,FED20220207a_3T2,4,N,4,6,3,30.120736380999,MemoryAll,Nonword_sequence,OneSentence,1.0,1.0,1.85830124800123,1.0,True,True
865,FED20220207a_3T2,4,S,4,6,4,38.1056383510004,ComprehensionQ,The importance of particle size in such aerosols has been thoroughly demonstrated.,TwoSentences,2.0,,,0.0,False,
865,FED20220207a_3T2,4,S,4,6,5,46.1070633749987,ComprehensionQ,He considered opening a can of beer but vetoed that idea too.,TwoSentences,2.0,2.0,1.5583161450013,1.0,True,True
865,FED20220207a_3T2,4,S,4,6,6,54.1238635829977,ComprehensionQ,I knew in that moment that I did not have any choice.,TwoSentences,1.0,2.0,2.99918680100018,1.0,False,False
865,FED20220207a_3T2,4,S,4,6,7,62.1424634909999,ComprehensionQ,Bare feet are better for such work than any form of slipper.,TwoSentences,1.0,1.0,2.51830947499911,1.0,True,True
865,FED20220207a_3T2,4,S,4,6,8,70.1104151439977,ComprehensionQ,He looked for the source of the noise that had awakened him.,TwoSentences,2.0,2.0,2.04693998199946,1.0,True,True
865,FED20220207a_3T2,4,S,4,6,9,78.1118150599978,ComprehensionQ,The right to leave legacies should be substantially reduced and ultimately eliminated.,TwoSentences,1.0,1.0,2.98626218199934,1.0,True,True
865,FED20220207a_3T2,4,N,4,6,10,86.1139530029977,MemoryAll,Nonword_sequence,OneSentence,1.0,2.0,0.879421775000083,1.0,False,False
865,FED20220207a_3T2,4,N,4,6,11,94.1142691210007,MemoryAll,Nonword_sequence,OneSentence,2.0,1.0,1.47456242000044,1.0,False,False
865,FED20220207a_3T2,4,N,4,6,12,102.119718561,MemoryAll,Nonword_sequence,OneSentence,2.0,1.0,1.21025884200208,1.0,False,False
865,FED20220207a_3T2,4,S,4,6,13,124.11857816,ComprehensionQ,Some of the Island is sand and is not suitable for living.,TwoSentences,2.0,2.0,2.6685892539972,1.0,True,True
865,FED20220207a_3T2,4,S,4,6,14,132.121103311998,ComprehensionQ,Today whole grains are freshly ground every day and baked into bread.,TwoSentences,1.0,1.0,2.18227325300177,1.0,True,True
865,FED20220207a_3T2,4,S,4,6,15,140.105870962001,ComprehensionQ,Montgomery knew all the national leaders up to the time of Kennedy.,TwoSentences,2.0,2.0,1.56845778099887,1.0,True,True
865,FED20220207a_3T2,4,N,4,6,16,148.139195510001,MemoryAll,Nonword_sequence,OneSentence,1.0,1.0,1.15123876200232,1.0,True,True
865,FED20220207a_3T2,4,N,4,6,17,156.145448020001,MemoryAll,Nonword_sequence,OneSentence,1.0,1.0,0.787592388998746,1.0,True,True
865,FED20220207a_3T2,4,N,4,6,18,164.124380040001,MemoryAll,Nonword_sequence,OneSentence,1.0,1.0,0.768730898002104,1.0,True,True
865,FED20220207a_3T2,4,S,4,6,19,172.110448322001,ComprehensionQ,I was constantly searching for clues around the neighborhood of the hall.,TwoSentences,2.0,2.0,2.66848992599989,1.0,True,True
865,FED20220207a_3T2,4,S,4,6,20,180.112715736999,ComprehensionQ,Oranges and grapefruit are shipped from Florida weekly from an organic farm.,TwoSentences,1.0,1.0,1.67416310099725,1.0,True,True
865,FED20220207a_3T2,4,S,4,6,21,188.162806861998,ComprehensionQ,None of us was aware that the biggest fight was still ahead.,TwoSentences,2.0,2.0,2.50223495300088,1.0,True,True
865,FED20220207a_3T2,4,N,4,6,22,196.113680300001,MemoryAll,Nonword_sequence,OneSentence,2.0,2.0,1.32722055900012,1.0,True,True
865,FED20220207a_3T2,4,N,4,6,23,204.113075149999,MemoryAll,Nonword_sequence,OneSentence,1.0,1.0,0.753723030000401,1.0,True,True
865,FED20220207a_3T2,4,N,4,6,24,212.134199423999,MemoryAll,Nonword_sequence,OneSentence,1.0,2.0,1.04816521999965,1.0,False,False
865,FED20220207a_3T2,4,N,4,6,25,234.119354122999,MemoryAll,Nonword_sequence,OneSentence,2.0,2.0,1.81125178900038,1.0,True,True
865,FED20220207a_3T2,4,N,4,6,26,242.10559531,MemoryAll,Nonword_sequence,OneSentence,1.0,1.0,0.936821459999919,1.0,True,True
865,FED20220207a_3T2,4,N,4,6,27,250.105930179998,MemoryAll,Nonword_sequence,OneSentence,1.0,1.0,0.920397229998343,1.0,True,True
865,FED20220207a_3T2,4,S,4,6,28,258.108312780998,ComprehensionQ,What mattered was that a new concept of Americans was being born.,TwoSentences,1.0,1.0,2.77397171699704,1.0,True,True
